Date,Time,Latitude,Longitude,Pitch (degrees),Roll (degrees),Heading (degrees Magnetic),Heave,Temperature in electronics box (degrees C),"Acceleration x, forward (G)","Acceleration y, starboard (G)","Acceleration z, down (G)",Yaw rate [degrees/s],Control Mode,Thrust (% Thrust),Thrust difference (% Thrust),Date (MMDDYY),Time (HHMMSS),Temperature (C),Specific Conductance (uS/cm),Salinity (PPT),Pressure (psia),Depth (m),Chlorophyll (ug/L),ODO (%Sat),ODO (mg/L),Turbidity (FNU),Wiper Position (V)
20260901,120649,25.912701268333333,-80.13782114333333,-2.3,-0.6,79.2,0.0,44.4,-0.03,0.02,-1.0,-0.53,Waypoint,-0.4,-53.2,90126.0,120613.0,29.96,46942.03,30.37,-1.43,-0.987,1.12,75.58,4.84,-0.24,1.2
20260901,120649,25.912701268333333,-80.13782114333333,-2.3,-0.6,79.2,0.0,44.4,-0.03,0.02,-1.0,-0.53,Waypoint,-0.4,-53.2,90126.0,120613.0,29.959,46937.44,30.37,0.04,0.03,1.11,75.57,4.84,-0.23,1.2
20260901,120650,25.912702196666668,-80.137821675,-1.8,-0.3,79.6,0.0,44.4,-0.24,0.04,-1.09,-10.82,Waypoint,-5.3,-73.3,90126.0,120614.0,29.956,46934.66,30.36,0.04,0.031,1.07,75.54,4.84,-0.23,1.2
20260901,120651,25.91270355,-80.13782123833333,-2.3,-0.3,79.7,0.0,44.4,-0.09,-0.05,-0.95,-17.07,Waypoint,-14.5,-21.2,90126.0,120615.0,29.952,46948.47,30.37,0.05,0.034,1.04,75.5,4.83,-0.22,1.2
20260901,120652,25.91270483,-80.13782152666667,-2.4,-0.6,79.9,0.0,44.4,-0.04,0.01,-0.99,-11.17,Waypoint,3.8,-3.8,90126.0,120616.0,29.949,46914.77,30.35,0.05,0.034,1.02,75.47,4.83,-0.21,1.2
20260901,120653,25.912705643333332,-80.13782202,-1.9,-0.5,80.1,0.0,44.5,-0.02,0.03,-1.0,-6.34,Waypoint,22.0,0.0,90126.0,120617.0,29.946,46886.64,30.33,0.05,0.033,1.0,75.47,4.83,-0.21,1.2
20260901,120654,25.912706175,-80.13782100166667,-2.1,-0.4,80.1,0.0,44.5,0.04,-0.03,-1.01,-4.54,Waypoint,27.0,-2.7,90126.0,120618.0,29.943,46865.04,30.31,0.05,0.033,0.99,75.49,4.84,-0.23,1.2
20260901,120655,25.91270688,-80.13781765666667,-2.0,-0.4,77.4,0.0,44.5,-0.07,0.01,-0.99,-3.91,Waypoint,28.0,-3.5,90126.0,120619.0,29.94,46869.34,30.32,0.05,0.034,0.98,75.51,4.84,-0.21,1.2
20260901,120656,25.912708035,-80.13781221166667,-1.8,-0.5,78.1,0.0,44.5,-0.01,0.04,-1.0,-1.64,Waypoint,31.0,-0.7,90126.0,120620.0,29.938,46859.57,30.31,0.05,0.033,0.97,75.56,4.84,-0.23,1.2
20260901,120657,25.912709623333335,-80.137804805,-1.8,-0.7,77.5,0.0,44.5,0.02,-0.0,-0.98,-1.84,Waypoint,32.0,-0.7,90126.0,120621.0,29.935,46819.71,30.28,0.05,0.033,0.96,75.59,4.84,-0.24,1.2
20260901,120658,25.912711673333334,-80.13779587333333,-1.7,-0.9,76.5,0.0,44.5,0.02,-0.01,-0.97,-1.89,Waypoint,33.0,-3.5,90126.0,120622.0,29.931,46764.66,30.24,0.05,0.034,0.9,75.66,4.85,-0.24,1.2
20260901,120659,25.91271417,-80.13778584666667,-1.7,-0.7,75.9,0.0,44.5,-0.05,-0.01,-1.0,-1.22,Waypoint,34.0,-2.0,90126.0,120623.0,29.927,46749.23,30.23,0.05,0.035,0.91,75.72,4.85,-0.25,1.2
20260901,120700,25.912716969999998,-80.137774935,-1.8,-0.7,77.2,0.0,44.5,-0.03,0.03,-1.03,-0.48,Waypoint,33.0,-3.5,90126.0,120624.0,29.92,46727.24,30.21,0.05,0.035,0.89,75.84,4.86,-0.25,1.2
20260901,120701,25.912720185,-80.13776254333334,-1.5,-0.7,67.4,0.0,44.5,0.01,0.0,-0.99,-2.02,Waypoint,30.8,-15.5,90126.0,120625.0,29.914,46708.66,30.2,0.05,0.035,0.86,75.98,4.87,-0.26,1.2
20260901,120702,25.912723318333335,-80.13775090333333,-1.6,-0.7,77.9,0.0,44.5,0.0,-0.01,-0.95,-0.46,Waypoint,31.0,4.9,90126.0,120626.0,29.906,46678.61,30.18,0.05,0.037,0.83,76.17,4.89,-0.26,1.2
20260901,120703,25.91272650166667,-80.13773912166667,-2.1,-0.8,78.2,0.0,44.4,-0.07,0.02,-1.0,0.12,Waypoint,31.7,-3.7,90126.0,120627.0,29.9,46654.84,30.16,0.05,0.037,0.81,76.35,4.9,-0.26,1.2
20260901,120704,25.912729663333334,-80.13772728666666,-2.1,-0.4,76.2,0.0,44.5,-0.03,0.01,-1.05,-0.72,Waypoint,32.0,4.1,90126.0,120628.0,29.892,46616.66,30.14,0.06,0.038,0.81,76.58,4.91,-0.25,1.2
20260901,120705,25.912733016666667,-80.13771528833334,-2.1,-0.0,76.7,0.0,44.5,-0.06,0.03,-1.06,-0.12,Waypoint,31.0,7.9,90126.0,120629.0,29.887,46594.46,30.12,0.06,0.039,0.81,76.82,4.93,-0.25,1.2
20260901,120705,25.912733016666667,-80.13771528833334,-2.1,-0.0,76.7,0.0,44.5,-0.06,0.03,-1.06,-0.12,Waypoint,31.0,7.9,90126.0,120630.0,29.881,46582.57,30.11,0.06,0.039,0.83,77.12,4.95,-0.23,1.2
20260901,120707,25.912739115,-80.13769417333333,-1.9,-1.0,232.0,0.0,44.5,0.0,0.03,-0.97,2.32,Waypoint,-0.4,53.1,90126.0,120631.0,29.878,46570.17,30.1,0.06,0.039,0.85,77.48,4.97,-0.23,1.2
20260901,120708,25.912741026666666,-80.13768468666666,-1.0,-1.0,232.0,0.0,44.5,0.0,0.03,-0.97,2.32,Waypoint,-0.4,53.1,90126.0,120632.0,29.875,46541.24,30.08,0.06,0.039,0.84,77.73,4.99,-0.22,1.2
20260901,120709,25.91274024,-80.13767537833333,-2.0,-2.2,237.1,0.0,44.5,-0.15,0.17,-0.87,22.39,Waypoint,-5.2,75.2,90126.0,120633.0,29.873,46499.54,30.05,0.06,0.039,0.83,78.1,5.02,-0.2,1.2
20260901,120710,25.91273665,-80.13766893,-1.9,-1.3,204.2,0.0,44.5,-0.03,0.01,-1.0,24.02,Waypoint,-5.2,75.2,90126.0,120634.0,29.872,46456.41,30.02,0.06,0.039,0.84,78.4,5.04,-0.2,1.2
20260901,120710,25.91273665,-80.13766893,-1.9,-1.3,204.2,0.0,44.5,-0.03,0.01,-1.0,24.02,Waypoint,-5.2,75.2,90126.0,120635.0,29.872,46393.32,29.97,0.06,0.038,0.86,78.74,5.06,-0.2,1.2
20260901,120711,25.91273173,-80.13766520333333,-2.7,-0.5,177.4,0.0,44.5,-0.08,0.03,-1.02,17.54,Waypoint,-11.1,34.2,90126.0,120636.0,29.872,46333.86,29.93,0.06,0.038,0.85,79.04,5.08,-0.16,1.2
20260901,120712,25.912727978333333,-80.13766385166667,-2.4,-0.1,163.2,0.0,44.4,-0.05,0.0,-1.02,11.88,Waypoint,0.0,0.0,90126.0,120637.0,29.871,46263.42,29.88,0.06,0.038,0.87,79.4,5.1,-0.15,1.2
20260901,120713,25.912725006666665,-80.13766314166666,-2.1,-0.1,160.8,0.0,44.4,-0.02,-0.02,-1.0,3.87,Waypoint,16.4,-39.5,90126.0,120638.0,29.87,46189.28,29.83,0.05,0.037,0.89,79.73,5.13,-0.09,1.2
20260901,120714,25.912721526666665,-80.13766199166666,-1.9,-0.4,160.9,0.0,44.4,-0.01,-0.0,-0.99,-5.63,Waypoint,16.4,-16.4,90126.0,120639.0,29.869,46120.73,29.78,0.05,0.037,0.91,83.26,5.36,-0.08,1.2
20260901,120715,25.912716081666666,-80.13765958333333,-2.9,-0.4,165.7,0.0,44.4,-0.06,0.02,-1.05,-4.14,Waypoint,30.9,21.9,90126.0,120640.0,29.871,46080.52,29.75,0.05,0.037,0.92,83.62,5.38,-0.07,1.2
20260901,120716,25.912710448333332,-80.13765685,-1.6,-0.4,165.9,0.0,44.5,-0.02,-0.0,-1.03,0.51,Waypoint,30.0,6.7,90126.0,120641.0,29.873,46075.66,29.74,0.05,0.037,0.94,83.3,5.36,-0.05,1.2
20260901,120717,25.912703421666667,-80.13765378666666,-0.9,-0.2,159.4,0.0,44.5,-0.01,0.05,-0.95,0.9,Waypoint,32.2,-2.3,90126.0,120642.0,29.875,46078.24,29.75,0.05,0.037,0.94,83.22,5.35,-0.04,1.2
20260901,120718,25.912695023333335,-80.13765014333333,-2.0,-0.6,164.2,0.0,44.5,-0.04,-0.06,-1.04,-0.71,Waypoint,32.0,7.6,90126.0,120643.0,29.878,46082.9,29.75,0.05,0.037,0.95,82.83,5.33,-0.04,1.2
20260901,120719,25.912685661666668,-80.13764613333333,-1.9,-0.5,160.6,0.0,44.5,-0.0,-0.06,-1.04,-0.71,Waypoint,34.0,1.6,90126.0,120644.0,29.879,46082.55,29.75,0.05,0.037,0.98,82.53,5.31,-0.04,1.2
20260901,120721,25.912675718333332,-80.13764175833333,-2.2,-0.8,163.9,0.0,44.5,-0.05,0.05,-1.01,0.87,Waypoint,32.0,1.5,90126.0,120645.0,29.88,46089.46,29.75,0.05,0.038,0.96,82.25,5.29,-0.05,1.2
20260901,120721,25.912664391666667,-80.13763702333334,-2.3,-0.5,158.8,0.0,44.5,-0.08,0.02,-1.07,-0.72,Waypoint,33.0,-2.0,90126.0,120646.0,29.88,46117.5,29.77,0.05,0.038,0.94,82.02,5.28,-0.05,1.2
20260901,120722,25.912654191666668,-80.13763243666666,-2.6,-0.4,334.4,0.0,44.5,-0.08,0.01,-1.05,-1.13,Waypoint,4.9,4.9,90126.0,120647.0,29.88,46167.26,29.81,0.05,0.038,0.95,81.81,5.26,-0.05,1.2
20260901,120723,25.912645373333334,-80.13762835666667,-1.8,-0.4,326.8,0.0,44.5,-0.04,-0.01,-0.93,1.56,Waypoint,-0.4,55.4,90126.0,120648.0,29.881,46218.34,29.85,0.05,0.038,0.97,81.68,5.25,-0.06,1.2
20260901,120724,25.912637026666665,-80.13762504833333,-2.0,-1.0,320.1,0.0,44.5,-0.02,0.06,-1.0,10.52,Waypoint,-5.2,75.2,90126.0,120649.0,29.882,46233.84,29.86,0.05,0.038,0.95,81.58,5.24,-0.06,1.2
20260901,120725,25.912628445,-80.13762412,-2.4,-1.5,327.2,0.0,44.5,-0.0,-0.07,-1.18,20.12,Waypoint,-5.2,75.2,90126.0,120650.0,29.883,46216.1,29.85,0.05,0.037,0.92,81.54,5.24,-0.08,1.2
20260901,120726,25.912621756666667,-80.13762658666667,-1.8,-1.8,306.5,0.0,44.5,-0.09,0.12,-1.01,24.25,Waypoint,-5.2,75.2,90126.0,120651.0,29.882,46198.79,29.83,0.05,0.037,0.88,81.56,5.24,-0.1,1.2
20260901,120727,25.91261799,-80.137630835,-2.0,-1.0,280.2,0.0,44.5,0.0,-0.08,-0.95,22.73,Waypoint,-10.1,37.8,90126.0,120652.0,29.881,46168.29,29.81,0.05,0.037,0.87,81.62,5.25,-0.15,1.2
20260901,120728,25.912616376666666,-80.13763462,-2.4,0.1,263.5,0.0,44.5,-0.06,0.0,-1.05,14.26,Waypoint,0.0,0.0,90126.0,120653.0,29.877,46123.17,29.78,0.05,0.037,0.87,81.74,5.26,-0.15,1.2
20260901,120729,25.912615581666667,-80.13763739666666,-2.2,0.1,260.0,0.0,44.5,-0.04,-0.02,-1.02,8.87,Waypoint,23.0,-30.3,90126.0,120654.0,29.871,46052.17,29.73,0.05,0.037,0.89,81.86,5.27,-0.16,1.2
20260901,120730,25.912614868333332,-80.137640245,-1.3,0.5,258.2,0.0,0.0,-0.04,-0.02,-1.02,8.87,Waypoint,18.9,-18.9,90126.0,120655.0,29.864,45968.97,29.67,0.05,0.037,0.89,81.97,5.28,-0.15,1.2
20260901,120731,25.91261344,-80.137645655,-1.7,0.5,263.8,0.0,44.5,-0.05,-0.01,-1.01,-0.71,Waypoint,34.0,9.0,90126.0,120656.0,29.857,45939.4,29.65,0.05,0.037,0.89,82.09,5.28,-0.16,1.2
20260901,120732,25.91261184,-80.13765270666667,-1.7,-0.1,265.4,0.0,44.5,0.03,-0.0,-1.04,0.52,Waypoint,33.0,5.4,90126.0,120657.0,29.852,45935.77,29.64,0.05,0.037,0.91,82.32,5.3,-0.16,1.2
20260901,120733,25.91260985,-80.13766172666666,-2.0,0.1,264.9,0.0,44.5,-0.02,0.06,-1.01,0.44,Waypoint,33.0,11.6,90126.0,120658.0,29.85,45935.41,29.64,0.05,0.037,0.92,82.55,5.32,-0.17,1.2
20260901,120734,25.91260756166667,-80.13767200666666,-1.9,-0.2,260.1,0.0,44.5,-0.05,0.04,-1.02,0.46,Waypoint,33.4,6.1,90126.0,120659.0,29.848,45927.87,29.64,0.05,0.037,0.91,82.78,5.33,-0.16,1.2
20260901,120736,25.912605078333332,-80.137683005,-1.8,-0.0,262.4,0.0,44.5,-0.01,0.0,-1.05,0.06,Waypoint,34.0,2.1,90126.0,120700.0,29.846,45921.99,29.63,0.05,0.037,0.93,83.01,5.35,-0.16,1.2
20260901,120737,25.912602406666668,-80.13769443333334,-1.7,-0.2,259.5,0.0,44.5,-0.04,-0.02,-1.01,0.47,Waypoint,34.0,0.6,90126.0,120701.0,29.842,45941.39,29.65,0.05,0.037,0.95,83.24,5.36,-0.18,1.2
20260901,120738,25.91259976,-80.137706175,-1.8,-0.3,257.9,0.0,44.5,-0.0,0.01,-1.0,-0.17,Waypoint,32.0,-9.0,90126.0,120702.0,29.839,46006.33,29.7,0.05,0.037,0.95,83.43,5.37,-0.18,1.2
20260901,120739,25.912597036666668,-80.1377181,-1.7,-0.2,262.5,0.0,44.6,-0.04,0.01,-1.02,-1.09,Waypoint,32.9,4.5,90126.0,120703.0,29.837,46107.82,29.77,0.05,0.038,0.94,83.56,5.38,-0.17,1.2
20260901,120740,25.912594266666666,-80.137729955,-2.6,-0.5,91.3,0.0,44.6,-0.07,0.01,-1.0,-0.93,Waypoint,4.5,-4.5,90126.0,120704.0,29.839,46227.92,29.86,0.05,0.037,0.96,83.62,5.38,-0.16,1.2
20260901,120741,25.912591708333334,-80.13774029166666,-2.5,-0.7,94.0,0.0,44.6,-0.05,0.0,-1.0,-1.65,Waypoint,-0.5,-50.6,90126.0,120705.0,29.844,46318.36,29.92,0.05,0.037,0.96,83.62,5.38,-0.15,1.2
20260901,120742,25.912588406666668,-80.13775052,-1.6,-0.6,92.3,0.0,44.6,0.03,-0.05,-0.0,-1.65,Waypoint,-5.2,-75.2,90126.0,120706.0,29.852,46408.06,29.99,0.05,0.037,0.97,83.58,5.37,-0.15,1.2
20260901,120743,25.91258330166667,-80.13775812666667,-2.7,0.9,86.5,0.0,44.6,-0.13,-0.04,-1.25,-23.27,Waypoint,-5.2,-75.2,90126.0,120707.0,29.86,46474.75,30.03,0.05,0.037,0.94,83.49,5.36,-0.16,1.2
20260901,120744,25.912577436666666,-80.13776133,-2.2,1.4,120.7,0.0,44.6,-0.06,-0.15,-0.95,-24.85,Waypoint,-5.4,-73.6,90126.0,120708.0,29.871,46542.64,30.08,0.05,0.037,0.9,83.37,5.35,-0.17,1.2
20260901,120745,25.912572923333332,-80.13776111166666,-2.1,0.6,143.7,0.0,44.6,-0.1,0.0,-0.99,-17.82,Waypoint,-17.4,-19.0,90126.0,120709.0,29.879,46538.66,30.08,0.05,0.037,0.9,83.21,5.34,-0.17,1.2
20260901,120746,25.912570081666665,-80.13776004166667,-2.3,0.1,153.7,0.0,44.6,-0.05,-0.01,-1.01,-11.32,Waypoint,0.0,0.0,90126.0,120710.0,29.884,46513.61,30.06,0.05,0.036,0.89,83.0,5.33,-0.17,1.2
20260901,120747,25.912567851666665,-80.13775873666667,-2.1,-0.1,160.2,0.0,44.6,-0.03,-0.01,-0.99,-5.71,Waypoint,23.5,23.5,90126.0,120711.0,29.887,46481.05,30.04,0.05,0.036,0.89,82.83,5.32,-0.18,1.2
20260901,120748,25.91256483,-80.13775723333333,-1.3,-0.1,155.4,0.0,44.6,-0.01,-0.0,-0.99,-0.87,Waypoint,31.9,-4.4,90126.0,120712.0,29.889,46472.13,30.03,0.05,0.036,0.86,82.68,5.31,-0.2,1.2
20260901,120749,25.912560238333334,-80.13775481333333,-1.7,-0.1,153.5,0.0,44.6,-0.0,0.06,-1.02,-3.77,Waypoint,30.0,-6.7,90126.0,120713.0,29.891,46489.21,30.04,0.05,0.036,0.83,82.57,5.3,-0.21,1.2
20260901,120750,25.912554185,-80.13775126166666,-2.0,-0.5,151.2,0.0,44.6,-0.05,0.04,-0.99,-2.72,Waypoint,30.0,-8.1,90126.0,120714.0,29.897,46490.36,30.04,0.05,0.036,0.82,82.48,5.3,-0.23,1.2
20260901,120751,25.912546923333334,-80.13774678833333,-1.8,-0.5,157.4,0.0,44.6,-0.0,0.03,-1.01,-0.68,Waypoint,32.9,6.5,90126.0,120715.0,29.903,46478.16,30.03,0.05,0.037,0.77,82.42,5.29,-0.25,1.2
20260901,120752,25.912537903333334,-80.13774118833334,-2.0,-0.1,152.5,0.0,44.6,-0.06,0.02,-1.0,-1.07,Waypoint,32.1,-3.0,90126.0,120716.0,29.908,46462.55,30.02,0.05,0.037,0.75,82.38,5.29,-0.25,1.2
20260901,120753,25.912529166666666,-80.13773545166667,-1.8,-0.2,156.1,0.0,44.6,-0.06,0.02,-1.0,-1.07,Waypoint,33.0,-1.1,90126.0,120717.0,29.911,46442.43,30.01,0.05,0.037,0.72,82.36,5.29,-0.27,1.2
20260901,120754,25.912520025,-80.13772953166666,-2.1,-0.5,164.2,0.0,44.6,-0.01,0.02,-1.0,1.24,Waypoint,27.0,9.2,90126.0,120718.0,29.913,46412.96,29.99,0.05,0.037,0.77,82.36,5.29,-0.28,1.2
20260901,120755,25.912510715,-80.13772387666667,-2.1,-0.2,151.2,0.0,44.6,-0.04,0.01,-1.01,-0.7,Waypoint,32.8,-2.7,90126.0,120719.0,29.913,46397.06,29.98,0.05,0.038,0.81,82.37,5.29,-0.28,1.2
20260901,120756,25.91250111,-80.13771786,-2.0,-0.1,154.1,0.0,44.6,0.07,-0.04,-1.04,-0.68,Waypoint,32.0,2.7,90126.0,120720.0,29.912,46374.61,29.96,0.06,0.038,0.81,82.38,5.29,-0.28,1.2
20260901,120757,25.91249149,-80.13771157166667,-2.2,-0.4,160.7,0.0,44.6,-0.07,0.04,-1.0,0.3,Waypoint,30.0,8.4,90126.0,120721.0,29.91,46348.31,29.94,0.06,0.038,0.84,82.4,5.29,-0.28,1.2
20260901,120758,25.912482223333335,-80.13770564333333,-2.6,-0.3,7.9,0.0,44.6,-0.06,0.01,-0.98,-0.93,Waypoint,4.7,-4.7,90126.0,120722.0,29.908,46346.47,29.94,0.06,0.038,0.81,82.44,5.29,-0.28,1.2
20260901,120759,25.912474261666667,-80.13770027666666,-2.2,-0.1,18.4,0.0,44.6,-0.05,-0.03,-1.01,-2.26,Waypoint,-0.5,-48.0,90126.0,120723.0,29.907,46333.68,29.93,0.06,0.038,0.81,82.48,5.3,-0.29,1.2
20260901,120800,25.912467321666668,-80.13769462333333,-2.0,0.8,22.2,0.0,44.6,0.03,-0.15,-0.87,-14.05,Waypoint,-5.2,-75.2,90126.0,120724.0,29.905,46300.68,29.91,0.06,0.038,0.82,82.53,5.3,-0.29,1.2
20260901,120801,25.912462788333332,-80.137687265,-2.4,1.6,32.9,0.0,44.6,-0.12,-0.15,-1.1,-24.83,Waypoint,-5.2,-75.2,90126.0,120725.0,29.903,46262.66,29.88,0.06,0.038,0.84,82.58,5.31,-0.3,1.2
20260901,120802,25.912462326666667,-80.13768023333333,-1.7,0.8,67.1,0.0,44.6,-0.07,-0.08,-0.98,-21.04,Waypoint,-9.4,-41.0,90126.0,120726.0,29.899,46204.7,29.84,0.06,0.038,0.87,82.64,5.31,-0.29,1.2
20260901,120803,25.912463481666666,-80.13767584833333,-2.0,0.2,85.2,0.0,44.7,-0.05,-0.0,-0.99,-11.97,Waypoint,0.0,0.0,90126.0,120727.0,29.893,46161.5,29.81,0.06,0.038,0.88,82.71,5.32,-0.28,1.2
20260901,120804,25.912464825,-80.137672565,-2.2,-0.6,91.8,0.0,44.7,-0.04,0.0,-1.0,-4.29,Waypoint,21.2,48.2,90126.0,120728.0,29.887,46119.79,29.78,0.06,0.039,0.92,82.81,5.32,-0.28,1.2
20260901,120805,25.912465915,-80.1376694,-1.3,-0.8,90.9,0.0,44.7,0.01,0.02,-0.98,3.7,Waypoint,18.8,18.8,90126.0,120729.0,29.88,46093.55,29.76,0.06,0.039,0.88,82.92,5.33,-0.27,1.2
20260901,120806,25.912467043333333,-80.13766407333334,-1.9,-0.9,84.8,0.0,44.7,-0.03,0.02,-0.98,4.45,Waypoint,8.8,-1.3,90126.0,120730.0,29.876,46070.23,29.74,0.06,0.039,0.89,83.05,5.34,-0.26,1.2
20260901,120807,25.912468171666667,-80.13765767,-1.4,-0.1,83.4,0.0,44.6,0.0,0.02,-1.01,0.75,Waypoint,33.0,3.5,90126.0,120731.0,29.871,46069.32,29.74,0.06,0.039,0.88,83.16,5.35,-0.25,1.2
20260901,120808,25.912469655,-80.13764947333334,-1.8,0.3,78.0,0.0,44.6,-0.01,0.01,-1.01,-0.29,Waypoint,32.0,-2.3,90126.0,120732.0,29.868,46071.98,29.74,0.06,0.039,0.84,83.29,5.36,-0.25,1.2
20260901,120809,25.91247149,-80.13763987,-1.6,0.1,82.5,0.0,44.6,-0.03,-0.05,-0.99,0.45,Waypoint,33.0,4.4,90126.0,120733.0,29.867,46077.62,29.75,0.06,0.039,0.85,83.38,5.36,-0.24,1.2
20260901,120810,25.91247344,-80.13762932666667,-1.9,0.0,84.5,0.0,44.6,0.02,-0.03,-1.02,-0.5,Waypoint,32.2,2.4,90126.0,120734.0,29.866,46099.06,29.76,0.06,0.039,0.86,83.48,5.37,-0.25,1.2
20260901,120811,25.91247557333333,-80.13761821833333,-2.0,0.0,80.6,0.0,44.6,-0.04,-0.0,-1.01,0.35,Waypoint,34.0,2.0,90126.0,120735.0,29.868,46120.16,29.78,0.06,0.04,0.88,83.54,5.37,-0.24,1.2
20260901,120812,25.912477918333334,-80.137605505,-2.0,0.0,79.0,0.0,44.7,-0.04,0.02,-0.98,0.58,Waypoint,33.0,-2.1,90126.0,120736.0,29.869,46152.65,29.8,0.06,0.04,0.88,83.59,5.38,-0.21,1.2
20260901,120813,25.912480085,-80.137593645,-2.1,-0.0,81.3,0.0,44.7,-0.03,0.01,-1.01,0.29,Waypoint,34.0,3.8,90126.0,120737.0,29.872,46186.47,29.82,0.06,0.04,0.88,83.63,5.38,-0.21,1.2
20260901,120814,25.912482285,-80.13758160833333,-2.0,0.5,223.8,0.0,44.7,-0.06,-0.01,-1.02,0.54,Waypoint,22.3,13.3,90126.0,120738.0,29.877,46229.25,29.86,0.06,0.04,0.85,83.65,5.38,-0.2,1.2
20260901,120815,25.912484425,-80.13757014,-2.4,0.4,215.0,0.0,44.7,-0.06,-0.0,-0.99,-0.62,Waypoint,4.8,4.8,90126.0,120739.0,29.882,46266.99,29.88,0.06,0.04,0.82,83.65,5.38,-0.2,1.2
20260901,120816,25.912486311666665,-80.13756028,-1.7,0.1,207.0,0.0,44.7,-0.03,-0.0,-0.98,2.72,Waypoint,-0.9,70.9,90126.0,120740.0,29.888,46277.45,29.89,0.06,0.04,0.85,83.62,5.37,-0.17,1.2
20260901,120817,25.912487245,-80.13755077,-1.7,-0.3,212.4,0.0,44.7,-0.04,0.02,-0.92,14.4,Waypoint,-5.2,75.2,90126.0,120741.0,29.892,46259.47,29.88,0.06,0.04,0.83,83.58,5.37,-0.17,1.2
20260901,120818,25.912485515,-80.13754204,-2.5,-1.9,181.7,0.0,44.7,-0.1,0.1,-0.95,20.52,Waypoint,-5.5,71.9,90126.0,120742.0,29.894,46212.63,29.84,0.06,0.039,0.82,83.54,5.37,-0.18,1.2
20260901,120819,25.91248179833333,-80.13753618166666,-2.0,-1.1,161.6,0.0,44.7,-0.01,0.03,-0.95,15.16,Waypoint,-8.1,24.9,90126.0,120743.0,29.894,46162.76,29.81,0.06,0.039,0.83,83.53,5.37,-0.19,1.2
20260901,120820,25.912478071666666,-80.137532545,-2.1,-0.3,156.5,0.0,44.7,-0.04,0.02,-0.95,8.71,Waypoint,11.2,11.2,90126.0,120744.0,29.894,46096.75,29.76,0.06,0.039,0.83,83.55,5.37,-0.18,1.2
20260901,120821,25.912474643333333,-80.13752967166667,-1.9,-0.5,151.8,0.0,44.7,-0.02,0.02,-0.96,4.43,Waypoint,27.0,3.9,90126.0,120745.0,29.892,46040.24,29.72,0.06,0.039,0.83,83.6,5.38,-0.18,1.2
20260901,120822,25.912469706666666,-80.13752574666667,-2.3,-0.7,151.5,0.0,44.7,0.01,0.04,-1.02,1.09,Waypoint,30.0,10.7,90126.0,120746.0,29.889,46014.27,29.7,0.06,0.038,0.85,83.71,5.38,-0.18,1.2
20260901,120823,25.912463503333335,-80.13752090833333,-2.1,-0.6,153.7,0.0,44.7,0.02,0.02,-1.03,0.12,Waypoint,31.5,15.6,90126.0,120747.0,29.888,46007.61,29.7,0.06,0.038,0.86,83.82,5.39,-0.17,1.2
20260901,120824,25.912455796666666,-80.13751514,-1.5,-0.4,148.7,0.0,44.7,-0.06,0.01,-0.97,1.25,Waypoint,34.0,4.1,90126.0,120748.0,29.887,45991.38,29.68,0.06,0.039,0.86,83.94,5.4,-0.16,1.2
20260901,120825,25.912447315,-80.13750881666667,-1.3,-0.4,146.4,0.0,44.7,-0.02,0.0,-0.91,0.23,Waypoint,33.0,3.6,90126.0,120749.0,29.886,45986.93,29.68,0.06,0.039,0.9,84.04,5.41,-0.15,1.2
20260901,120826,25.91243837,-80.13750219333333,-1.4,-0.5,144.5,0.0,44.7,-0.05,0.03,-0.97,0.68,Waypoint,34.7,5.6,90126.0,120750.0,29.884,45980.27,29.68,0.06,0.04,0.91,84.13,5.41,-0.16,1.2
20260901,120827,25.91242907,-80.13749541333334,-1.9,-0.5,145.6,0.0,44.7,-0.0,-0.03,-0.97,0.1,Waypoint,32.8,-2.6,90126.0,120751.0,29.882,45997.18,29.69,0.06,0.04,0.93,84.19,5.42,-0.18,1.2
20260901,120828,25.91241975333333,-80.13748835833333,-2.2,-0.4,145.4,0.0,44.7,-0.04,-0.02,-1.04,-0.83,Waypoint,32.0,6.9,90126.0,120752.0,29.88,46007.96,29.7,0.06,0.04,0.89,84.25,5.42,-0.15,1.2
20260901,120829,25.912410673333333,-80.137481195,-1.9,-0.3,145.5,0.0,44.7,-0.02,0.0,-1.03,-0.65,Waypoint,33.0,3.2,90126.0,120753.0,29.88,46024.16,29.71,0.06,0.04,0.93,84.28,5.42,-0.15,1.2
20260901,120830,25.912401686666666,-80.13747393166666,-2.8,-0.0,332.4,0.0,44.7,-0.06,-0.0,-1.03,-0.21,Waypoint,4.5,-4.5,90126.0,120754.0,29.88,46053.44,29.73,0.06,0.041,0.95,84.3,5.42,-0.15,1.2
20260901,120831,25.912393951666665,-80.137467485,-3.1,-0.1,322.7,0.0,44.7,-0.06,-0.01,-1.01,-0.42,Waypoint,5.0,5.0,90126.0,120755.0,29.88,46121.06,29.78,0.06,0.041,0.95,84.31,5.42,-0.16,1.2
20260901,120832,25.9123865,-80.137461175,-2.6,-0.4,318.8,0.0,44.7,-0.05,0.02,-0.99,1.15,Waypoint,-0.4,50.7,90126.0,120756.0,29.883,46192.06,29.83,0.06,0.04,0.97,84.3,5.42,-0.14,1.2
20260901,120833,25.912379756666667,-80.13745650833333,-2.2,-1.0,319.6,0.0,44.7,-0.06,-0.02,-0.97,10.83,Waypoint,-5.2,75.2,90126.0,120757.0,29.886,46254.35,29.87,0.06,0.04,0.95,84.26,5.42,-0.13,1.2
20260901,120834,25.912372036666667,-80.13745429333333,-1.6,-1.1,331.9,0.0,44.7,0.01,-0.01,-0.92,22.57,Waypoint,-5.2,75.2,90126.0,120758.0,29.89,46282.91,29.89,0.06,0.04,0.92,84.18,5.41,-0.14,1.2
20260901,120835,25.91236547666667,-80.13745553166666,-2.4,-2.1,309.9,0.0,44.7,-0.08,0.04,-0.94,22.63,Waypoint,-5.2,75.2,90126.0,120759.0,29.894,46270.61,29.89,0.06,0.039,0.94,84.06,5.4,-0.14,1.2
20260901,120836,25.912361093333335,-80.13745905,-2.5,-1.9,284.3,0.0,44.7,-0.1,-0.1,-0.92,22.97,Waypoint,-5.2,71.6,90126.0,120800.0,29.897,46227.79,29.85,0.06,0.039,0.92,83.96,5.4,-0.14,1.2
20260901,120837,25.912358983333334,-80.13746304,-2.7,-1.0,267.0,0.0,44.7,-0.06,-0.05,-1.04,17.6,Waypoint,-15.9,15.9,90126.0,120801.0,29.897,46170.25,29.81,0.06,0.039,0.92,83.88,5.39,-0.15,1.2
20260901,120838,25.912358265,-80.13746622833334,-2.3,-0.9,264.0,0.0,44.7,-0.05,0.01,-1.0,12.06,Waypoint,-6.3,-6.3,90126.0,120802.0,29.897,46124.48,29.78,0.06,0.038,0.89,83.84,5.39,-0.16,1.2
20260901,120839,25.912358003333335,-80.13746901833333,-2.0,0.2,258.5,0.0,44.7,-0.02,-0.03,-1.02,7.93,Waypoint,19.2,-19.9,90126.0,120803.0,29.895,46105.96,29.77,0.05,0.038,0.93,83.84,5.39,-0.17,1.2
20260901,120840,25.912357355,-80.137472905,-1.7,0.6,261.5,0.0,44.7,0.0,0.03,-1.0,-0.32,Waypoint,34.0,-4.3,90126.0,120804.0,29.894,46060.23,29.73,0.05,0.038,0.91,83.87,5.39,-0.19,1.2
20260901,120841,25.91235611666667,-80.13747888333333,-1.5,-0.8,261.1,0.0,44.7,-0.03,0.05,-1.02,-0.09,Waypoint,33.0,-2.8,90126.0,120805.0,29.892,46030.52,29.71,0.05,0.037,0.9,83.95,5.4,-0.18,1.2
20260901,120842,25.912354503333333,-80.137487515,-1.4,-0.6,258.4,0.0,44.7,-0.04,0.01,-1.03,0.2,Waypoint,31.0,3.6,90126.0,120806.0,29.891,46018.91,29.7,0.05,0.038,0.88,84.03,5.41,-0.19,1.2
20260901,120843,25.912352686666665,-80.13749687166667,-1.4,-0.5,259.2,0.0,44.7,-0.02,-0.01,-0.97,-1.37,Waypoint,32.0,0.1,90126.0,120807.0,29.891,46026.13,29.71,0.05,0.038,0.87,84.13,5.41,-0.21,1.2
20260901,120844,25.912350641666666,-80.13750711166666,-1.9,-0.8,259.0,0.0,44.7,-0.04,0.01,-1.01,-0.39,Waypoint,29.0,-1.1,90126.0,120808.0,29.892,46032.19,29.71,0.06,0.038,0.86,84.24,5.42,-0.23,1.2
20260901,120845,25.912348338333334,-80.13751792333333,-1.8,-0.6,258.4,0.0,44.7,-0.03,0.03,-1.0,-0.21,Waypoint,32.0,2.7,90126.0,120809.0,29.896,46041.4,29.72,0.06,0.038,0.9,84.35,5.43,-0.23,1.2
20260901,120846,25.912345868333333,-80.137529125,-1.7,-1.0,259.7,0.0,44.7,-0.05,0.02,-1.01,-0.78,Waypoint,34.0,2.3,90126.0,120810.0,29.902,46079.05,29.75,0.06,0.039,0.87,84.46,5.43,-0.23,1.2
20260901,120847,25.912343281666665,-80.137540585,-1.7,-0.9,254.6,0.0,44.7,-0.01,-0.01,-0.98,0.01,Waypoint,35.2,3.2,90126.0,120811.0,29.909,46124.34,29.78,0.06,0.039,0.89,84.57,5.44,-0.24,1.2
20260901,120848,25.912340586666666,-80.13755239333334,-1.7,-0.7,255.8,0.0,44.8,-0.04,0.03,-1.01,-0.62,Waypoint,33.9,-0.4,90126.0,120812.0,29.915,46202.98,29.84,0.06,0.039,0.87,84.65,5.44,-0.22,1.2
20260901,120849,25.912337848333333,-80.13756443,-2.5,-1.3,90.2,0.0,44.8,-0.07,0.01,-1.0,-0.07,Waypoint,12.5,8.0,90126.0,120813.0,29.924,46278.5,29.89,0.06,0.039,0.88,84.73,5.44,-0.23,1.2
20260901,120850,25.912335496666667,-80.13757522,-2.7,-0.9,97.4,0.0,44.8,-0.04,-0.01,-0.99,-0.68,Waypoint,4.9,-4.9,90126.0,120814.0,29.933,46383.66,29.97,0.06,0.039,0.88,84.79,5.44,-0.22,1.2
20260901,120851,25.91233318,-80.13758466333333,-1.4,-0.7,99.8,0.0,44.8,-0.07,-0.0,-1.0,-7.73,Waypoint,-0.8,-69.2,90126.0,120815.0,29.944,46471.96,30.03,0.06,0.039,0.89,84.82,5.44,-0.22,1.2
20260901,120852,25.912329356666667,-80.13759300833334,-1.9,0.2,100.2,0.0,44.8,0.0,-0.07,-1.02,-20.55,Waypoint,-5.2,-75.2,90126.0,120816.0,29.955,46505.61,30.05,0.06,0.039,0.88,84.81,5.44,-0.23,1.2
20260901,120853,25.912323171666667,-80.13759813833333,-2.4,0.8,108.9,0.0,44.8,0.02,-0.02,-0.83,-24.62,Waypoint,-5.2,-75.2,90126.0,120817.0,29.966,46531.02,30.07,0.06,0.039,0.88,84.79,5.44,-0.23,1.2
20260901,120854,25.91231815,-80.13759875833334,-2.6,0.7,129.3,0.0,44.8,0.01,-0.1,-0.97,-23.11,Waypoint,-6.9,-56.4,90126.0,120818.0,29.973,46529.48,30.07,0.06,0.039,0.84,84.78,5.44,-0.22,1.2
20260901,120855,25.912315033333332,-80.137597525,-2.3,-0.2,159.8,0.0,44.8,-0.05,0.01,-0.97,-14.86,Waypoint,0.0,0.0,90126.0,120819.0,29.978,46518.67,30.06,0.06,0.039,0.84,84.79,5.44,-0.23,1.2
20260901,120856,25.912312895,-80.13759612666666,-2.6,-0.3,166.4,0.0,44.8,-0.04,0.02,-0.99,-9.2,Waypoint,13.4,46.9,90126.0,120820.0,29.98,46507.57,30.05,0.06,0.039,0.81,84.83,5.44,-0.22,1.2
20260901,120857,25.912311028333335,-80.1375948,-2.2,-0.4,167.5,0.0,44.8,0.01,0.06,-1.0,0.08,Waypoint,26.5,26.5,90126.0,120821.0,29.981,46501.13,30.05,0.06,0.039,0.82,84.89,5.44,-0.23,1.2
20260901,120858,25.912307048333332,-80.13759282666666,-2.3,0.0,156.3,0.0,44.8,-0.02,-0.02,-0.99,2.42,Waypoint,30.6,0.2,90126.0,120822.0,29.982,46496.14,30.05,0.06,0.039,0.81,84.97,5.45,-0.21,1.2
20260901,120859,25.912301951666667,-80.13759042833334,-1.4,0.1,156.5,0.0,44.8,-0.02,-0.01,-1.0,1.89,Waypoint,33.0,-9.1,90126.0,120823.0,29.981,46495.59,30.05,0.06,0.039,0.82,85.05,5.45,-0.21,1.2
20260901,120900,25.912295361666665,-80.13758707166667,-1.3,-0.2,159.7,0.0,44.8,0.02,0.04,-1.0,0.02,Waypoint,34.0,4.3,90126.0,120824.0,29.981,46519.05,30.06,0.06,0.039,0.84,85.14,5.46,-0.21,1.2
20260901,120901,25.912287375,-80.13758303833333,-1.4,-0.2,155.7,0.0,44.8,-0.05,0.01,-1.02,-0.03,Waypoint,32.0,-3.1,90126.0,120825.0,29.981,46540.28,30.08,0.06,0.039,0.83,85.21,5.46,-0.2,1.2
20260901,120902,25.91227863,-80.13757851833333,-1.7,-0.2,159.0,0.0,44.8,-0.03,-0.0,-0.96,0.77,Waypoint,32.9,2.6,90126.0,120826.0,29.98,46527.43,30.07,0.06,0.039,0.82,85.23,5.46,-0.21,1.2
20260901,120903,25.912268341666667,-80.13757324,-2.3,-0.2,161.8,0.0,44.8,-0.06,0.03,-1.02,0.54,Waypoint,33.0,5.2,90126.0,120827.0,29.977,46511.26,30.06,0.06,0.039,0.8,85.24,5.46,-0.23,1.2
20260901,120904,25.912258555,-80.1375683,-2.2,-0.1,160.7,0.0,44.8,-0.01,0.0,-1.03,0.08,Waypoint,34.0,4.6,90126.0,120828.0,29.973,46513.95,30.06,0.06,0.039,0.8,85.26,5.47,-0.23,1.2
20260901,120905,25.912248663333333,-80.13756324833334,-1.5,-0.1,160.4,0.0,44.8,-0.01,0.02,-0.96,-0.61,Waypoint,33.4,6.9,90126.0,120829.0,29.972,46574.57,30.1,0.06,0.039,0.83,85.28,5.47,-0.21,1.2
20260901,120906,25.912238836666667,-80.13755811166666,-1.6,-0.1,159.9,0.0,44.8,-0.01,-0.01,-0.97,-0.63,Waypoint,34.0,8.9,90126.0,120830.0,29.972,46636.68,30.15,0.06,0.039,0.84,85.28,5.47,-0.21,1.2
20260901,120907,25.912229043333333,-80.13755282166667,-2.0,-0.2,156.8,0.0,44.8,0.0,0.01,-0.96,0.28,Waypoint,33.7,1.8,90126.0,120831.0,29.975,46703.66,30.2,0.06,0.038,0.86,85.23,5.46,-0.19,1.2
20260901,120908,25.912219265,-80.13754756333333,-2.0,-0.4,158.9,0.0,44.8,-0.05,-0.02,-1.01,-0.33,Waypoint,34.0,4.0,90126.0,120832.0,29.979,46755.11,30.23,0.06,0.038,0.9,85.12,5.45,-0.17,1.2
20260901,120909,25.912209865,-80.13754256166666,-2.3,-0.2,11.8,0.0,44.8,-0.06,-0.0,-0.95,-0.64,Waypoint,4.5,-4.5,90126.0,120833.0,29.982,46820.5,30.28,0.06,0.038,0.93,84.98,5.44,-0.15,1.2
20260901,120910,25.912201943333333,-80.13753802166667,-2.6,-0.1,24.4,0.0,44.8,-0.05,0.02,-0.0,-0.64,Waypoint,-0.4,-59.9,90126.0,120834.0,29.986,46890.52,30.33,0.06,0.039,0.99,84.78,5.43,-0.13,1.2
20260901,120911,25.912195046666668,-80.13753304166667,-2.2,0.9,22.1,0.0,44.8,-0.02,-0.01,-1.05,-13.79,Waypoint,-5.2,-75.2,90126.0,120835.0,29.99,46899.54,30.34,0.06,0.039,0.98,84.56,5.41,-0.11,1.2
20260901,120912,25.912190433333333,-80.13752609833334,-3.2,2.0,37.9,0.0,44.8,-0.02,-0.17,-1.05,-24.02,Waypoint,-5.1,-73.0,90126.0,120836.0,29.994,46876.39,30.32,0.06,0.039,0.99,84.31,5.4,-0.11,1.2
20260901,120913,25.912189663333333,-80.13751882666666,-2.3,0.6,73.3,0.0,44.8,-0.02,-0.03,-0.98,-17.51,Waypoint,-17.3,-17.3,90126.0,120837.0,29.997,46830.91,30.29,0.06,0.039,0.99,84.14,5.39,-0.12,1.2
20260901,120914,25.912190651666666,-80.13751391333334,-1.8,-0.2,85.6,0.0,44.8,-0.04,0.0,-0.98,-9.82,Waypoint,-5.4,5.4,90126.0,120838.0,29.998,46758.59,30.23,0.06,0.04,1.01,84.05,5.38,-0.12,1.2
20260901,120916,25.912191788333335,-80.13751001833333,-1.9,0.1,86.4,0.0,44.8,-0.03,0.02,-1.0,-4.9,Waypoint,30.8,30.8,90126.0,120839.0,29.998,46716.78,30.2,0.06,0.039,1.01,84.04,5.38,-0.14,1.2
20260901,120916,25.912193018333333,-80.13750549833334,-1.5,0.0,89.6,0.0,44.8,-0.01,0.05,-0.99,2.46,Waypoint,29.0,12.9,90126.0,120840.0,30.0,46702.98,30.19,0.06,0.039,1.0,84.13,5.39,-0.14,1.2
20260901,120918,25.912194273333334,-80.13749870833334,-1.6,0.4,82.9,0.0,44.8,0.04,-0.04,-1.05,0.62,Waypoint,34.0,-2.5,90126.0,120841.0,30.002,46693.84,30.19,0.06,0.04,1.01,84.24,5.39,-0.13,1.2
20260901,120919,25.912195856666667,-80.13748999166667,-1.6,0.0,79.7,0.0,44.8,-0.06,0.01,-1.02,-0.25,Waypoint,31.0,-3.1,90126.0,120842.0,30.003,46661.59,30.16,0.06,0.04,1.0,84.37,5.4,-0.12,1.2
20260901,120920,25.912197751666668,-80.13748000833333,-1.8,0.7,81.6,0.0,44.8,-0.01,-0.0,-1.01,0.32,Waypoint,33.4,5.9,90126.0,120843.0,30.002,46657.28,30.16,0.06,0.04,0.99,84.5,5.41,-0.11,1.2
20260901,120921,25.91219986,-80.137469145,-1.9,1.1,81.1,0.0,44.8,0.01,-0.06,-1.04,-0.3,Waypoint,33.0,-0.6,90126.0,120844.0,30.001,46645.46,30.15,0.06,0.04,0.97,84.61,5.42,-0.1,1.2
20260901,120922,25.912202196666666,-80.137457795,-1.6,0.5,83.5,0.0,44.8,-0.04,-0.06,-1.03,1.44,Waypoint,35.7,4.8,90126.0,120845.0,30.0,46644.24,30.15,0.06,0.04,0.91,84.7,5.43,-0.12,1.2
20260901,120923,25.912204348333333,-80.13744600333334,-1.7,1.1,80.1,0.0,44.8,-0.04,0.02,-1.02,0.99,Waypoint,33.8,-4.3,90126.0,120846.0,30.001,46638.34,30.15,0.06,0.04,0.91,84.78,5.43,-0.14,1.2
20260901,120924,25.912206668333333,-80.13743277333333,-1.8,0.8,78.0,0.0,44.8,-0.04,-0.01,-1.01,0.87,Waypoint,34.9,4.2,90126.0,120847.0,30.002,46618.07,30.13,0.06,0.04,0.89,84.83,5.43,-0.14,1.2
20260901,120925,25.912208781666667,-80.13742067333334,-1.8,0.4,80.1,0.0,44.8,-0.03,0.02,-0.99,-0.92,Waypoint,33.0,1.3,90126.0,120849.0,30.002,46674.3,30.17,0.06,0.04,0.89,84.91,5.44,-0.16,1.2
20260901,120926,25.912211043333333,-80.13740866,-1.8,-0.7,78.3,0.0,44.8,-0.04,0.04,-0.98,-1.41,Waypoint,32.0,0.7,90126.0,120850.0,30.002,46689.32,30.18,0.06,0.04,0.91,84.91,5.44,-0.16,1.2
20260901,120927,25.91221332,-80.13739650833334,-1.7,-0.6,81.0,0.0,44.8,-0.03,0.04,-0.98,-0.34,Waypoint,34.0,2.9,90126.0,120851.0,30.0,46735.83,30.22,0.06,0.04,0.96,84.86,5.43,-0.15,1.2
20260901,120928,25.91221557,-80.13738419833334,-1.8,-0.2,76.5,0.0,44.8,-0.03,0.02,-1.0,-1.13,Waypoint,32.0,-1.0,90126.0,120852.0,29.998,46800.66,30.27,0.06,0.04,0.97,84.73,5.42,-0.14,1.2
20260901,120929,25.91221792,-80.137372,-1.7,-0.1,83.4,0.0,44.8,-0.04,0.01,-0.99,-0.24,Waypoint,32.7,6.5,90126.0,120853.0,29.996,46852.16,30.3,0.06,0.04,0.97,84.53,5.41,-0.12,1.2
20260901,120930,25.912220396666665,-80.137359685,-1.6,0.0,78.3,0.0,44.8,-0.04,0.02,-1.0,-0.77,Waypoint,34.0,3.0,90126.0,120854.0,29.996,46886.47,30.33,0.06,0.04,0.96,84.25,5.39,-0.12,1.2
20260901,120931,25.912222825,-80.137348295,-2.3,-0.6,222.9,0.0,44.8,-0.05,0.02,-0.97,-0.98,Waypoint,5.0,5.0,90126.0,120855.0,29.996,46879.97,30.32,0.06,0.04,0.91,83.98,5.37,-0.12,1.2
20260901,120932,25.912224863333332,-80.13733842333333,-1.4,-0.8,211.1,0.0,44.8,-0.04,0.04,-0.97,3.78,Waypoint,-0.3,64.0,90126.0,120856.0,29.996,46850.93,30.3,0.06,0.04,0.91,83.68,5.36,-0.12,1.2
20260901,120933,25.912225716666665,-80.13732874666667,-1.7,-0.8,205.2,0.0,44.9,-0.08,0.04,-1.04,15.48,Waypoint,Unknown,64.0,90126.0,120857.0,29.996,46791.52,30.26,0.06,0.04,0.93,83.46,5.34,-0.12,1.2
20260901,120934,25.912223365,-80.137319445,-1.9,-1.4,196.9,0.0,44.9,-0.03,-0.02,-1.11,21.51,Waypoint,-5.2,75.2,90126.0,120858.0,29.992,46740.33,30.22,0.06,0.039,0.96,83.26,5.33,-0.13,1.2
20260901,120935,25.912219385,-80.13731412666667,-2.4,-0.4,163.3,0.0,44.8,-0.04,-0.03,-1.04,15.39,Waypoint,-13.3,26.3,90126.0,120859.0,29.989,46674.93,30.17,0.06,0.04,0.97,83.14,5.32,-0.14,1.2
20260901,120936,25.912215598333333,-80.13731078666666,-2.5,0.0,152.2,0.0,44.8,-0.04,-0.01,-1.01,7.76,Waypoint,0.0,0.0,90126.0,120900.0,29.985,46608.23,30.13,0.06,0.04,0.94,83.04,5.32,-0.15,1.2
20260901,120937,25.912212195,-80.13730817,-2.7,0.0,149.4,0.0,44.8,-0.04,-0.02,-1.02,2.39,Waypoint,6.9,-6.9,90126.0,120901.0,29.981,46535.02,30.07,0.06,0.039,0.93,82.99,5.32,-0.14,1.2
20260901,120938,25.912208665,-80.13730542,-2.9,-0.3,145.7,0.0,44.8,-0.02,-0.01,-1.04,0.11,Waypoint,34.0,4.6,90126.0,120902.0,29.976,46479.81,30.03,0.06,0.04,0.9,82.97,5.32,-0.14,1.2
20260901,120939,25.912203803333334,-80.13730157333333,-2.5,-0.5,145.6,0.0,44.8,-0.03,0.02,-1.03,0.94,Waypoint,34.0,2.1,90126.0,120903.0,29.971,46429.39,30.0,0.06,0.04,0.91,82.98,5.32,-0.15,1.2
20260901,120940,25.91219728,-80.13729641666667,-2.5,-0.6,148.3,0.0,44.9,-0.03,0.01,-1.03,0.05,Waypoint,31.1,13.6,90126.0,120904.0,29.967,46392.2,29.97,0.06,0.039,0.91,83.01,5.33,-0.15,1.2
20260901,120941,25.91218948,-80.137290285,-2.2,-0.4,143.3,0.0,44.9,-0.01,-0.0,-1.02,0.13,Waypoint,33.2,-4.7,90126.0,120905.0,29.963,46364.49,29.95,0.06,0.039,0.91,83.06,5.33,-0.15,1.2
20260901,120942,25.912180995,-80.13728362666667,-1.9,-0.7,148.2,0.0,44.9,0.01,-0.02,-0.99,0.03,Waypoint,33.0,5.3,90126.0,120906.0,29.959,46338.42,29.93,0.06,0.039,0.95,83.12,5.33,-0.17,1.2
20260901,120943,25.912172095,-80.13727670333333,-1.8,-0.4,141.2,0.0,44.9,-0.03,0.01,-1.0,-1.46,Waypoint,31.0,-5.0,90126.0,120907.0,29.954,46322.43,29.92,0.06,0.039,0.93,83.17,5.34,-0.17,1.2
20260901,120944,25.912162346666666,-80.13726884,-1.6,-0.8,150.2,0.0,44.9,-0.03,0.06,-0.95,0.46,Waypoint,31.0,11.2,90126.0,120908.0,29.949,46324.94,29.92,0.06,0.04,0.94,83.22,5.34,-0.17,1.2
20260901,120945,25.912153248333333,-80.13726151666667,-2.5,-0.6,144.3,0.0,44.9,-0.06,0.01,-1.04,-1.06,Waypoint,33.0,5.6,90126.0,120909.0,29.943,46339.6,29.93,0.06,0.04,0.9,83.25,5.34,-0.16,1.2
20260901,120946,25.912144053333332,-80.13725401166667,-2.1,-0.6,143.1,0.0,44.9,-0.04,0.01,-1.03,-1.0,Waypoint,33.0,4.0,90126.0,120910.0,29.939,46370.72,29.96,0.06,0.04,0.88,83.27,5.34,-0.15,1.2
20260901,120947,25.912134955,-80.137246405,-2.1,-0.4,325.7,0.0,44.9,-0.05,-0.01,-0.98,-0.83,Waypoint,13.4,3.5,90126.0,120911.0,29.938,46408.7,29.98,0.06,0.039,0.91,83.28,5.35,-0.15,1.2
20260901,120948,25.912127058333333,-80.13723949666667,-2.3,-0.4,319.0,0.0,44.9,-0.05,-0.0,-0.95,-0.39,Waypoint,5.0,5.0,90126.0,120912.0,29.937,46468.55,30.03,0.06,0.04,0.9,83.29,5.35,-0.15,1.2
20260901,120949,25.9121202,-80.13723347166666,-2.6,-0.5,312.5,0.0,44.9,-0.05,-0.0,-0.98,-0.12,Waypoint,-0.7,31.8,90126.0,120913.0,29.936,46523.39,30.07,0.06,0.04,0.91,83.32,5.35,-0.16,1.2
20260901,120950,25.912113971666667,-80.13722813166666,-1.9,-0.6,309.2,0.0,44.9,-0.02,0.01,-0.96,4.82,Waypoint,-4.3,74.3,90126.0,120914.0,29.936,46591.66,30.12,0.06,0.039,0.92,83.33,5.35,-0.16,1.2
20260901,120951,25.912107075,-80.137223925,-1.7,-1.4,319.5,0.0,44.9,-0.17,0.07,-0.91,16.96,Waypoint,-5.2,75.2,90126.0,120915.0,29.936,46614.37,30.13,0.06,0.039,0.9,83.33,5.34,-0.14,1.2
20260901,120952,25.912099771666668,-80.13722292,-3.2,-2.2,314.0,0.0,44.9,0.06,-0.0,-0.95,23.28,Waypoint,-5.2,75.2,90126.0,120916.0,29.936,46605.85,30.13,0.06,0.039,0.88,83.3,5.34,-0.13,1.2
20260901,120953,25.912094398333334,-80.13722511166667,-2.0,-1.9,293.2,0.0,44.9,-0.09,0.06,-1.01,25.12,Waypoint,-5.4,72.0,90126.0,120917.0,29.936,46586.5,30.11,0.06,0.039,0.87,83.27,5.34,-0.13,1.2
20260901,120954,25.91209123166667,-80.13722923,-1.9,-0.6,265.4,0.0,44.9,-0.13,-0.03,-0.94,21.17,Waypoint,-16.5,16.5,90126.0,120918.0,29.937,46552.22,30.09,0.06,0.039,0.87,83.24,5.34,-0.11,1.2
20260901,120955,25.912089996666666,-80.13723229166666,-2.2,-0.3,262.9,0.0,44.9,-0.04,-0.01,-1.02,11.87,Waypoint,-5.8,-5.8,90126.0,120919.0,29.936,46523.07,30.07,0.06,0.039,0.88,83.22,5.34,0.04,1.2
20260901,120956,25.91208921,-80.13723481,-2.1,-1.6,264.4,0.0,44.9,-0.04,0.04,-0.98,7.29,Waypoint,12.0,-12.0,90126.0,120920.0,29.934,46501.43,30.05,0.06,0.039,0.89,83.21,5.34,0.11,1.2
20260901,120957,25.912088451666666,-80.13723777666667,-2.0,-0.8,265.3,0.0,44.9,0.01,-0.0,-1.02,1.94,Waypoint,29.0,5.3,90126.0,120921.0,29.932,46481.16,30.04,0.06,0.038,0.92,83.2,5.34,0.21,1.2
20260901,120958,25.91208728,-80.13724235,-1.5,-1.1,261.8,0.0,44.9,-0.04,-0.01,-1.0,-0.45,Waypoint,33.0,9.5,90126.0,120922.0,29.929,46443.64,30.01,0.05,0.038,0.93,83.2,5.34,0.38,1.2
20260901,120959,25.91208575,-80.13724927166666,-1.7,-1.5,254.7,0.0,44.9,-0.06,0.06,-0.97,-0.99,Waypoint,30.0,-1.1,90126.0,120923.0,29.927,46424.77,30.0,0.05,0.038,0.95,83.21,5.34,0.46,1.2
20260901,121000,25.912083806666665,-80.1372577,-1.7,-0.3,261.5,0.0,44.9,-0.04,-0.04,-1.01,-1.6,Waypoint,30.7,6.3,90126.0,120924.0,29.924,46423.44,29.99,0.05,0.038,0.97,83.23,5.34,0.49,1.2
20260901,121001,25.912081456666666,-80.137267205,-1.4,-1.0,259.4,0.0,44.9,-0.04,0.04,-0.98,-0.64,Waypoint,34.0,8.4,90126.0,120925.0,29.924,46409.36,29.98,0.05,0.037,0.93,83.24,5.34,0.49,1.2
20260901,121002,25.91207889,-80.13727776666667,-1.5,-0.4,256.3,0.0,44.9,-0.01,-0.02,-0.98,-0.42,Waypoint,32.0,2.0,90126.0,120926.0,29.923,46410.29,29.99,0.05,0.037,0.93,83.22,5.34,0.49,1.2
20260901,121003,25.912076178333333,-80.13728898333333,-1.7,-0.8,256.1,0.0,44.9,-0.05,-0.02,-1.0,-0.15,Waypoint,33.1,-1.8,90126.0,120927.0,29.923,46398.21,29.98,0.05,0.037,0.93,83.19,5.34,0.52,1.2
20260901,121004,25.91207307333333,-80.137301705,-1.7,-0.6,256.5,0.0,44.9,-0.04,0.03,-1.03,-1.2,Waypoint,31.4,1.1,90126.0,120928.0,29.923,46403.57,29.98,0.05,0.037,0.92,83.16,5.34,0.51,1.2
20260901,121005,25.912070096666667,-80.13731329333334,-1.6,0.1,254.0,0.0,44.9,-0.02,0.0,-1.01,-0.29,Waypoint,31.0,-0.3,90126.0,120929.0,29.925,46424.78,30.0,0.05,0.037,0.93,83.14,5.34,0.49,1.2
20260901,121006,25.912066998333334,-80.137325055,-1.7,0.3,254.6,0.0,44.9,-0.01,0.0,-1.03,0.05,Waypoint,32.8,-0.9,90126.0,120930.0,29.928,46456.71,30.02,0.05,0.038,0.9,83.14,5.34,0.48,1.2
20260901,121007,25.912063738333334,-80.13733691333333,-1.7,0.0,256.5,0.0,44.9,-0.02,-0.02,-0.99,0.83,Waypoint,34.7,4.0,90126.0,120931.0,29.93,46490.59,30.04,0.05,0.037,0.88,83.15,5.34,0.48,1.2
20260901,121008,25.91206053166667,-80.13734878166666,-1.6,-0.3,255.5,0.0,44.9,-0.05,-0.03,-0.99,0.2,Waypoint,33.6,-0.1,90126.0,120932.0,29.935,46530.39,30.07,0.05,0.037,0.86,83.16,5.34,0.48,1.2
20260901,121009,25.912057238333333,-80.137360685,-1.7,0.2,259.0,0.0,44.9,-0.03,-0.01,-1.0,0.03,Waypoint,33.0,6.6,90126.0,120933.0,29.939,46563.95,30.1,0.05,0.037,0.87,83.17,5.33,0.38,1.2
20260901,121010,25.912053873333335,-80.13737255166667,-1.7,-0.4,259.2,0.0,44.9,-0.04,-0.0,-1.03,0.29,Waypoint,33.0,7.1,90126.0,120934.0,29.945,46589.57,30.11,0.05,0.038,0.86,83.17,5.33,0.24,1.2
20260901,121011,25.912050666666666,-80.13738391666666,-2.5,-0.7,97.3,0.0,44.9,-0.07,-0.0,-1.0,-0.28,Waypoint,4.8,-4.8,90126.0,120935.0,29.951,46617.51,30.13,0.05,0.038,0.87,83.16,5.33,0.17,1.2
20260901,121012,25.912047878333333,-80.13739366,-2.2,-0.1,103.7,0.0,44.9,-0.03,-0.03,-1.05,-2.3,Waypoint,-0.4,-55.5,90126.0,120936.0,29.955,46629.19,30.14,0.06,0.038,0.88,83.15,5.33,0.03,1.2
20260901,121013,25.91204459,-80.13740248833334,-1.6,0.2,106.1,0.0,44.9,0.06,0.03,-0.98,-11.73,Waypoint,-5.2,-75.2,90126.0,120937.0,29.959,46609.17,30.13,0.06,0.038,0.89,83.13,5.33,-0.09,1.2
20260901,121014,25.912038618333334,-80.13741028166666,-2.6,1.0,98.9,0.0,44.9,-0.12,-0.08,-0.82,-22.21,Waypoint,-5.2,-75.2,90126.0,120938.0,29.96,46580.93,30.11,0.06,0.039,0.91,83.12,5.33,-0.15,1.2
20260901,121015,25.912032646666667,-80.13741284,-2.1,1.0,133.5,0.0,45.0,0.03,-0.04,-1.03,-22.68,Waypoint,-6.3,-62.6,90126.0,120939.0,29.96,46528.82,30.07,0.06,0.039,0.89,83.13,5.33,-0.19,1.2
20260901,121016,25.912027943333335,-80.13741255666666,-2.4,-0.1,154.9,0.0,45.0,-0.05,0.0,-0.97,-15.67,Waypoint,-2.2,-2.2,90126.0,120940.0,29.958,46455.39,30.02,0.06,0.039,0.87,83.14,5.33,-0.21,1.2
20260901,121017,25.91202452,-80.137411565,-2.7,-0.5,175.2,0.0,45.0,-0.05,0.01,-1.01,-9.16,Waypoint,-2.2,-2.2,90126.0,120941.0,29.949,46359.87,29.95,0.06,0.039,0.87,83.18,5.34,-0.22,1.2
20260901,121018,25.912021498333335,-80.13741037666667,-2.1,-0.5,164.4,0.0,45.0,-0.02,0.02,-1.0,-3.98,Waypoint,21.2,21.2,90126.0,120942.0,29.938,46282.85,29.89,0.06,0.039,0.88,83.25,5.34,-0.24,1.2
20260901,121019,25.912016976666667,-80.13740883833333,-1.3,-0.2,166.8,0.0,45.0,0.01,-0.01,-0.97,0.8,Waypoint,34.0,4.1,90126.0,120943.0,29.924,46216.89,29.85,0.06,0.039,0.86,83.37,5.35,-0.25,1.2
20260901,121020,25.912010315,-80.13740648,-1.5,0.0,163.5,0.0,45.0,-0.03,0.02,-1.0,-0.48,Waypoint,32.0,6.6,90126.0,120944.0,29.911,46182.56,29.82,0.06,0.039,0.82,83.5,5.36,-0.25,1.2
20260901,121021,25.912002331666667,-80.13740333166666,-1.3,0.2,159.6,0.0,45.0,-0.0,-0.04,-0.95,0.28,Waypoint,34.5,7.0,90126.0,120945.0,29.9,46159.2,29.8,0.06,0.039,0.83,83.68,5.38,-0.26,1.2
20260901,121022,25.91199320833333,-80.1373997,-1.9,-0.1,163.2,0.0,45.0,0.01,-0.02,-1.03,-0.28,Waypoint,33.5,-5.0,90126.0,120946.0,29.894,46130.2,29.78,0.06,0.038,0.8,83.87,5.39,-0.27,1.2
20260901,121022,25.91199320833333,-80.1373997,-1.9,-0.1,163.2,0.0,45.0,0.01,-0.02,-1.03,-0.28,Waypoint,33.5,-5.0,90126.0,120947.0,29.89,46102.73,29.76,0.06,0.038,0.83,84.11,5.41,-0.27,1.2
20260901,121023,25.911983543333335,-80.13739574333333,-1.6,-0.2,165.5,0.0,45.0,-0.03,0.0,-0.99,-0.32,Waypoint,34.0,3.9,90126.0,120948.0,29.888,46073.34,29.74,0.06,0.038,0.82,84.33,5.42,-0.27,1.2
20260901,121024,25.911972398333333,-80.13739109,-1.4,-0.2,166.9,0.0,45.0,-0.02,0.05,-0.97,0.1,Waypoint,33.0,7.4,90126.0,120949.0,29.884,46051.06,29.73,0.06,0.038,0.82,84.58,5.44,-0.27,1.2
20260901,121025,25.911962043333332,-80.137386645,-2.1,-0.3,164.3,0.0,45.0,-0.0,-0.03,-0.98,-0.6,Waypoint,34.0,4.8,90126.0,120950.0,29.882,46034.51,29.71,0.06,0.038,0.81,84.81,5.46,-0.28,1.2
20260901,121026,25.91195149,-80.13738205166666,-2.3,-0.3,164.2,0.0,45.0,-0.04,0.03,-1.03,0.05,Waypoint,34.0,4.3,90126.0,120951.0,29.882,46046.43,29.72,0.06,0.038,0.79,85.08,5.47,-0.28,1.2
20260901,121027,25.911940956666665,-80.137377415,-2.1,-0.4,166.7,0.0,45.0,-0.04,0.05,-1.01,0.05,Waypoint,32.0,8.5,90126.0,120952.0,29.885,46088.96,29.75,0.06,0.039,0.76,85.33,5.49,-0.29,1.2
20260901,121028,25.911930521666665,-80.13737285666667,-2.2,-0.3,166.3,0.0,45.0,-0.02,-0.0,-1.01,0.02,Waypoint,32.0,8.0,90126.0,120953.0,29.893,46166.53,29.81,0.06,0.039,0.76,85.61,5.5,-0.28,1.2
20260901,121029,25.91192027,-80.13736834,-2.8,-0.2,3.6,0.0,45.0,-0.07,-0.0,-1.03,-0.76,Waypoint,4.2,4.2,90126.0,120954.0,29.904,46247.61,29.87,0.06,0.039,0.78,85.84,5.52,-0.26,1.2
20260901,121030,25.911911461666666,-80.13736419666667,-2.9,-0.2,11.0,0.0,45.0,-0.04,-0.02,-1.01,-1.16,Waypoint,5.0,-5.0,90126.0,120955.0,29.92,46345.83,29.94,0.06,0.039,0.8,86.05,5.53,-0.26,1.2
20260901,121031,25.911903783333333,-80.13736008333333,-2.0,-0.0,17.1,0.0,45.0,-0.01,0.11,-0.97,-8.21,Waypoint,-0.9,-70.9,90126.0,120956.0,29.936,46410.07,29.98,0.06,0.04,0.78,86.19,5.53,-0.25,1.2
20260901,121032,25.911897266666667,-80.13735435,-2.0,0.8,14.9,0.0,45.0,0.02,-0.03,-0.98,-20.59,Waypoint,-5.2,-75.2,90126.0,120957.0,29.953,46428.19,30.0,0.06,0.04,0.76,86.29,5.54,-0.25,1.2
20260901,121033,25.911894133333334,-80.13734712833333,-2.3,1.6,27.2,0.0,45.0,-0.09,0.04,-1.12,-25.16,Waypoint,-5.2,-75.2,90126.0,120958.0,29.964,46421.84,29.99,0.06,0.041,0.72,86.33,5.54,-0.24,1.2
20260901,121034,25.911894508333333,-80.137340565,-2.4,0.4,58.0,0.0,45.0,-0.08,-0.04,-0.98,-18.38,Waypoint,-11.1,-34.2,90126.0,120959.0,29.97,46396.49,29.97,0.06,0.041,0.7,86.36,5.54,-0.24,1.2
20260901,121035,25.911895853333334,-80.13733644666667,-2.3,-0.2,73.5,0.0,45.1,-0.05,0.01,-0.99,-9.46,Waypoint,0.0,0.0,90126.0,121000.0,29.971,46386.02,29.97,0.06,0.041,0.69,86.37,5.54,-0.24,1.2
20260901,121036,25.91189725,-80.13733313166667,-1.9,-0.4,80.6,0.0,45.1,-0.03,0.01,-1.0,-5.33,Waypoint,30.9,32.7,90126.0,121001.0,29.972,46397.67,29.97,0.06,0.041,0.68,86.41,5.54,-0.24,1.2
20260901,121037,25.911898848333333,-80.13732877166666,-2.1,0.1,76.3,0.0,45.0,-0.04,0.03,-1.02,1.3,Waypoint,32.0,1.2,90126.0,121002.0,29.975,46422.84,29.99,0.06,0.041,0.73,86.45,5.54,-0.22,1.2
20260901,121038,25.911900753333335,-80.13732250333334,-2.0,0.4,77.3,0.0,45.0,-0.03,0.04,-1.01,0.75,Waypoint,33.0,3.3,90126.0,121003.0,29.98,46450.96,30.01,0.06,0.041,0.75,86.48,5.55,-0.22,1.2
20260901,121039,25.91190325,-80.13731419833333,-1.9,-0.1,71.4,0.0,45.0,-0.04,0.01,-1.04,-0.91,Waypoint,34.2,9.4,90126.0,121004.0,29.985,46460.46,30.02,0.06,0.04,0.74,86.5,5.55,-0.21,1.2
20260901,121040,25.911906228333333,-80.13730449166667,-1.8,-0.5,77.7,0.0,45.0,-0.06,0.01,-0.96,-2.03,Waypoint,32.0,16.3,90126.0,121005.0,29.987,46445.55,30.01,0.06,0.04,0.77,86.5,5.55,-0.22,1.2
20260901,121041,25.911909575,-80.13729402833333,-1.7,-0.7,77.5,0.0,45.0,-0.05,0.03,-0.99,-0.36,Waypoint,32.0,10.5,90126.0,121006.0,29.986,46438.39,30.0,0.06,0.04,0.78,86.49,5.55,-0.21,1.2
20260901,121042,25.911912936666667,-80.13728293166666,-1.7,-0.2,70.1,0.0,45.0,0.01,0.01,-0.94,-0.78,Waypoint,32.0,-1.8,90126.0,121007.0,29.984,46416.45,29.99,0.06,0.04,0.8,86.48,5.54,-0.21,1.2
20260901,121043,25.91191653,-80.13727159666666,-1.7,-0.2,70.6,0.0,45.0,-0.02,0.03,-1.01,-0.42,Waypoint,33.0,-0.9,90126.0,121008.0,29.981,46385.09,29.97,0.06,0.04,0.8,86.45,5.54,-0.22,1.2
20260901,121044,25.911920701666666,-80.137258755,-1.7,-0.0,72.7,0.0,45.0,0.01,0.0,-0.98,-0.2,Waypoint,34.0,3.4,90126.0,121010.0,29.973,46343.56,29.94,0.06,0.041,0.82,86.4,5.54,-0.22,1.2
20260901,121045,25.911924698333333,-80.13724697333333,-1.9,-0.3,75.6,0.0,45.0,-0.04,0.02,-1.0,0.12,Waypoint,31.0,10.6,90126.0,121011.0,29.97,46366.37,29.95,0.06,0.04,0.83,86.37,5.54,-0.21,1.2
20260901,121047,25.911932613333335,-80.13722342,-1.9,-0.3,67.6,0.0,45.1,-0.01,-0.03,-0.98,-0.59,Waypoint,33.2,-1.2,90126.0,121011.0,29.97,46366.37,29.95,0.06,0.04,0.83,86.37,5.54,-0.21,1.2
20260901,121048,25.911936678333333,-80.13721174666667,-2.2,0.2,74.9,0.0,45.0,-0.04,-0.02,-1.0,0.51,Waypoint,31.0,8.2,90126.0,121012.0,29.971,46393.81,29.97,0.06,0.04,0.85,86.33,5.54,-0.21,1.2
20260901,121049,25.911940761666667,-80.13720009166667,-2.2,0.3,74.8,0.0,45.1,-0.04,0.01,-1.02,-0.35,Waypoint,31.0,12.4,90126.0,121013.0,29.974,46420.39,29.99,0.06,0.041,0.87,86.29,5.53,-0.21,1.2
20260901,121050,25.911944715,-80.13718845166666,-1.9,-0.9,72.1,0.0,45.1,-0.05,0.02,-1.02,-0.98,Waypoint,33.0,11.8,90126.0,121014.0,29.976,46435.88,30.0,0.06,0.041,0.88,86.22,5.53,-0.2,1.2
20260901,121051,25.911948791666667,-80.13717669666667,-1.9,-0.5,75.1,0.0,45.1,-0.04,0.06,-0.99,-0.53,Waypoint,30.0,17.2,90126.0,121015.0,29.978,46444.08,30.01,0.06,0.04,0.85,86.13,5.52,-0.2,1.2
20260901,121052,25.911952961666668,-80.13716487166667,-2.0,0.0,73.2,0.0,45.1,-0.05,-0.01,-0.99,0.42,Waypoint,32.0,10.0,90126.0,121016.0,29.977,46446.06,30.01,0.06,0.041,0.86,86.02,5.52,-0.2,1.2
20260901,121052,25.911952961666668,-80.13716487166667,-2.0,0.0,73.2,0.0,45.1,-0.05,-0.01,-0.99,0.42,Waypoint,32.0,10.0,90126.0,121017.0,29.975,46458.01,30.02,0.06,0.041,0.83,85.91,5.51,-0.22,1.2
20260901,121053,25.911957028333333,-80.13715322833333,-2.6,-0.0,234.0,0.0,45.1,-0.06,0.0,-1.0,-0.09,Waypoint,4.5,4.5,90126.0,121018.0,29.973,46482.9,30.04,0.06,0.041,0.83,85.77,5.5,-0.21,1.2
20260901,121054,25.911961031666667,-80.13714210666667,-2.8,0.0,224.8,0.0,45.1,-0.07,-0.05,-1.02,0.54,Waypoint,-0.5,50.6,90126.0,121019.0,29.972,46497.71,30.05,0.06,0.041,0.84,85.63,5.49,-0.21,1.2
20260901,121055,25.911963906666667,-80.13713275333333,-2.1,-0.7,224.4,0.0,45.1,-0.07,0.04,-0.98,10.75,Waypoint,-5.2,75.2,90126.0,121020.0,29.971,46501.59,30.05,0.06,0.041,0.85,85.46,5.48,-0.2,1.2
20260901,121057,0.0,0.0,-3.1,-1.3,212.5,0.0,45.1,-0.02,0.04,-0.87,19.74,Waypoint,-5.2,75.2,90126.0,121021.0,29.97,46490.69,30.04,0.06,0.041,0.85,85.32,5.47,-0.2,1.2
20260901,121057,25.911962048333333,-80.13711577833334,-2.7,-2.1,198.7,0.0,45.1,-0.07,0.17,-0.92,24.55,Waypoint,-5.2,75.2,90126.0,121022.0,29.97,46480.58,30.03,0.06,0.041,0.87,85.18,5.46,-0.2,1.2
20260901,121059,25.911958023333334,-80.13711135666667,-2.8,-1.6,173.4,0.0,45.1,-0.08,0.11,-0.98,20.56,Waypoint,-12.4,30.1,90126.0,121023.0,29.97,46468.96,30.03,0.06,0.04,0.87,85.06,5.45,-0.2,1.2
20260901,121100,25.911954278333333,-80.13710924333333,-2.8,-1.3,155.9,0.0,45.1,-0.05,0.02,-1.01,12.14,Waypoint,0.0,0.0,90126.0,121024.0,29.969,46449.44,30.01,0.06,0.04,0.85,84.93,5.45,-0.21,1.2
20260901,121101,25.911951253333335,-80.13710803166667,-2.2,-1.2,152.8,0.0,45.1,-0.03,0.01,-0.99,6.83,Waypoint,25.8,-32.3,90126.0,121025.0,29.968,46423.7,29.99,0.06,0.04,0.84,84.82,5.44,-0.21,1.2
20260901,121102,25.911947893333334,-80.13710676,-1.4,-0.5,148.6,0.0,45.1,0.06,0.03,-1.02,-0.57,Waypoint,23.9,-25.8,90126.0,121026.0,29.966,46398.27,29.98,0.06,0.04,0.84,84.7,5.43,-0.22,1.2
20260901,121103,25.911942748333335,-80.13710429666666,-2.2,-0.6,153.3,0.0,45.1,-0.04,-0.0,-0.97,-1.82,Waypoint,29.0,0.7,90126.0,121027.0,29.963,46379.49,29.96,0.06,0.039,0.84,84.61,5.43,-0.21,1.2
20260901,121104,25.911936365,-80.13710110833334,-2.3,-0.7,154.8,0.0,45.1,0.01,-0.02,-1.04,-0.86,Waypoint,32.0,-1.6,90126.0,121028.0,29.96,46360.74,29.95,0.06,0.039,0.86,84.51,5.42,-0.21,1.2
20260901,121105,25.911928863333333,-80.13709733166667,-2.3,-0.6,151.9,0.0,45.1,-0.0,-0.03,-0.99,-1.24,Waypoint,32.8,-1.8,90126.0,121029.0,29.957,46348.8,29.94,0.06,0.039,0.86,84.44,5.42,-0.21,1.2
20260901,121106,25.911919626666666,-80.13709235666667,-1.7,-0.6,155.3,0.0,45.1,-0.04,0.0,-0.95,-0.77,Waypoint,34.0,2.1,90126.0,121030.0,29.956,46336.52,29.93,0.06,0.039,0.87,84.38,5.42,-0.22,1.2
20260901,121107,25.91191042333333,-80.13708729666666,-1.6,-0.5,154.7,0.0,45.1,0.02,-0.04,-0.98,-0.63,Waypoint,34.0,2.0,90126.0,121031.0,29.955,46314.99,29.92,0.06,0.039,0.86,84.34,5.41,-0.22,1.2
20260901,121108,25.911900858333333,-80.13708184666666,-1.9,-0.7,154.9,0.0,45.1,-0.0,-0.02,-0.97,-0.28,Waypoint,34.0,0.7,90126.0,121032.0,29.955,46299.52,29.9,0.06,0.039,0.86,84.32,5.41,-0.22,1.2
20260901,121109,25.911890966666668,-80.13707624666667,-2.0,-0.6,153.1,0.0,45.1,-0.03,0.01,-1.01,-0.83,Waypoint,33.3,-1.5,90126.0,121033.0,29.954,46286.69,29.89,0.06,0.039,0.84,84.32,5.41,-0.22,1.2
20260901,121110,25.911880965,-80.137070455,-1.8,-0.5,150.8,0.0,45.1,0.01,0.05,-0.99,-0.94,Waypoint,32.0,-0.8,90126.0,121034.0,29.954,46289.7,29.9,0.06,0.039,0.84,84.32,5.41,-0.22,1.2
20260901,121111,25.911870983333333,-80.1370645,-1.8,-0.4,154.9,0.0,45.1,-0.01,0.02,-0.96,-0.27,Waypoint,33.0,3.9,90126.0,121035.0,29.953,46297.52,29.9,0.06,0.039,0.82,84.33,5.41,-0.21,1.2
20260901,121112,25.911861106666667,-80.137058535,-3.0,-0.5,330.4,0.0,45.1,-0.07,0.01,-1.01,-0.75,Waypoint,4.7,4.7,90126.0,121036.0,29.953,46309.92,29.91,0.06,0.039,0.8,84.35,5.41,-0.22,1.2
20260901,121113,25.911852646666667,-80.13705325,-3.2,-0.5,316.5,0.0,45.1,-0.07,-0.0,-1.03,0.8,Waypoint,-0.5,42.4,90126.0,121037.0,29.953,46318.61,29.92,0.06,0.039,0.83,84.37,5.42,-0.23,1.2
20260901,121114,25.91184472833333,-80.13704883,-2.2,-0.9,315.0,0.0,45.1,-0.05,0.08,-1.12,9.61,Waypoint,-5.2,75.2,90126.0,121038.0,29.952,46319.59,29.92,0.06,0.039,0.77,84.39,5.42,-0.24,1.2
20260901,121115,25.911836215,-80.137046705,-2.6,-2.0,319.7,0.0,45.1,-0.13,-0.0,-0.83,20.08,Waypoint,-5.2,75.2,90126.0,121039.0,29.951,46313.48,29.91,0.06,0.039,0.75,84.42,5.42,-0.24,1.2
20260901,121116,25.911828433333334,-80.13704861833334,-3.1,-2.8,298.6,0.0,45.1,-0.15,0.03,-0.94,24.04,Waypoint,-5.2,75.2,90126.0,121040.0,29.951,46280.48,29.89,0.06,0.039,0.74,84.45,5.42,-0.24,1.2
20260901,121117,25.9118242,-80.13705268,-2.2,-1.5,266.8,0.0,45.1,-0.08,0.06,-0.97,20.31,Waypoint,-6.9,56.4,90126.0,121041.0,29.949,46223.22,29.85,0.06,0.039,0.71,84.47,5.42,-0.25,1.2
20260901,121118,25.911822018333332,-80.13705658166667,-2.0,-1.6,254.3,0.0,45.1,-0.04,0.03,-0.98,12.54,Waypoint,0.0,0.0,90126.0,121042.0,29.945,46173.73,29.81,0.06,0.039,0.69,84.5,5.43,-0.25,1.2
20260901,121119,0.0,0.0,-2.2,-2.2,247.3,0.0,45.1,-0.03,0.04,-0.98,8.23,Waypoint,0.8,-31.7,90126.0,121043.0,29.94,46128.69,29.78,0.06,0.038,0.71,84.52,5.43,-0.23,1.2
20260901,121120,25.911819766666667,-80.137063,-1.7,-1.2,244.6,0.0,45.1,0.01,-0.01,-0.97,0.75,Waypoint,27.1,-27.1,90126.0,121044.0,29.934,46078.98,29.75,0.06,0.038,0.73,84.56,5.43,-0.22,1.2
20260901,121121,25.911817766666665,-80.13706802,-1.6,-0.7,247.5,0.0,45.1,-0.02,0.04,-0.97,-1.77,Waypoint,31.2,3.7,90126.0,121045.0,29.926,46061.63,29.73,0.05,0.038,0.72,84.63,5.44,-0.21,1.2
20260901,121122,25.91181504,-80.13707473666666,-1.3,-0.7,244.6,0.0,45.1,-0.01,-0.0,-0.97,0.98,Waypoint,36.3,-2.8,90126.0,121046.0,29.92,46064.95,29.74,0.05,0.038,0.73,84.71,5.45,-0.2,1.2
20260901,121123,25.911811801666666,-80.13708309166667,-1.5,-0.5,248.7,0.0,45.1,-0.01,-0.04,-1.01,-1.5,Waypoint,33.0,2.4,90126.0,121047.0,29.917,46073.5,29.74,0.05,0.037,0.76,84.8,5.45,-0.19,1.2
20260901,121124,25.911807943333333,-80.13709243166667,-1.5,0.1,247.3,0.0,45.1,-0.05,-0.01,-0.95,-0.78,Waypoint,34.1,2.2,90126.0,121048.0,29.916,46089.88,29.75,0.05,0.037,0.74,84.86,5.46,-0.19,1.2
20260901,121125,25.91180359,-80.13710241833333,-1.5,-0.4,249.1,0.0,45.1,-0.01,-0.01,-1.04,-0.5,Waypoint,34.0,11.3,90126.0,121049.0,29.917,46108.87,29.77,0.05,0.037,0.75,84.92,5.46,-0.19,1.2
20260901,121126,25.911798435,-80.13711404166666,-1.8,-0.9,252.6,0.0,45.1,-0.02,0.05,-1.0,-0.06,Waypoint,30.0,10.6,90126.0,121050.0,29.918,46124.69,29.78,0.05,0.037,0.77,84.97,5.46,-0.18,1.2
20260901,121127,25.91179372,-80.13712492666667,-1.7,-1.5,249.1,0.0,45.1,-0.03,0.02,-0.99,-0.54,Waypoint,33.0,5.6,90126.0,121051.0,29.92,46157.19,29.8,0.05,0.037,0.76,85.01,5.46,-0.17,1.2
20260901,121128,25.91178884,-80.13713601166667,-1.9,-0.9,243.1,0.0,45.1,-0.04,0.02,-1.0,-0.82,Waypoint,31.0,-6.3,90126.0,121052.0,29.922,46191.57,29.83,0.05,0.037,0.78,85.03,5.46,-0.17,1.2
20260901,121129,25.911783965,-80.13714712666666,-1.9,-1.0,252.8,0.0,45.1,-0.04,0.05,-1.0,-0.3,Waypoint,30.0,12.0,90126.0,121053.0,29.925,46239.11,29.86,0.05,0.037,0.74,85.04,5.46,-0.16,1.2
20260901,121130,25.91177903333333,-80.13715826,-2.0,-0.5,248.3,0.0,45.1,-0.04,0.02,-1.04,-0.44,Waypoint,34.0,5.2,90126.0,121054.0,29.929,46296.09,29.9,0.05,0.037,0.75,85.04,5.46,-0.14,1.2
20260901,121131,25.911773946666667,-80.13716942333333,-2.0,-0.8,248.9,0.0,45.1,-0.03,0.05,-0.98,-0.29,Waypoint,33.0,6.0,90126.0,121055.0,29.934,46346.22,29.94,0.05,0.037,0.75,85.03,5.46,-0.12,1.2
20260901,121132,25.91176884,-80.13718055666666,-2.0,-1.4,250.5,0.0,45.1,-0.01,0.01,-0.98,-0.48,Waypoint,32.0,9.9,90126.0,121056.0,29.938,46361.75,29.95,0.05,0.037,0.75,85.02,5.46,-0.11,1.2
20260901,121133,25.911763756666666,-80.13719171333334,-2.0,-0.9,247.0,0.0,45.1,-0.06,0.07,-1.0,-0.6,Waypoint,34.0,3.9,90126.0,121057.0,29.943,46399.54,29.98,0.05,0.037,0.75,84.99,5.45,-0.11,1.2
20260901,121134,25.911758703333334,-80.13720280666666,-1.9,-0.9,248.1,0.0,45.1,-0.05,0.05,-0.99,-0.39,Waypoint,34.0,5.1,90126.0,121058.0,29.948,46414.26,29.99,0.05,0.038,0.73,84.94,5.45,-0.14,1.2
20260901,121135,25.911753595,-80.137213925,-2.0,-1.1,247.9,0.0,45.1,-0.05,0.01,-1.02,-0.58,Waypoint,33.8,5.6,90126.0,121059.0,29.954,46412.54,29.99,0.06,0.038,0.72,84.86,5.44,-0.13,1.2
20260901,121136,25.911747973333334,-80.137226185,-2.0,-1.1,249.3,0.0,45.2,-0.07,0.02,-1.02,-0.14,Waypoint,33.0,8.7,90126.0,121100.0,29.957,46410.91,29.98,0.06,0.039,0.72,84.79,5.44,-0.13,1.2
20260901,121137,25.911743,-80.13723708666667,-2.7,-0.7,97.9,0.0,45.2,-0.07,-0.0,-1.0,0.15,Waypoint,4.8,-4.8,90126.0,121101.0,29.96,46411.95,29.99,0.06,0.039,0.74,84.74,5.44,-0.16,1.2
20260901,121138,25.911738691666667,-80.13724641666667,-2.5,-0.1,107.0,0.0,45.2,-0.04,-0.04,-1.01,-1.43,Waypoint,-0.4,-53.1,90126.0,121102.0,29.962,46427.23,30.0,0.06,0.039,0.75,84.71,5.43,-0.15,1.2
20260901,121139,25.911734233333334,-80.13725462,-1.9,0.5,106.3,0.0,45.2,-0.03,-0.1,-1.11,-10.65,Waypoint,-5.2,-75.2,90126.0,121103.0,29.969,46434.36,30.0,0.06,0.04,0.77,84.72,5.43,-0.16,1.2
20260901,121140,25.911728098333334,-80.137260985,-2.8,0.9,115.4,0.0,45.2,-0.06,-0.05,-1.04,-23.31,Waypoint,-5.2,-75.2,90126.0,121104.0,29.973,46410.88,29.98,0.06,0.04,0.79,84.75,5.44,-0.17,1.2
20260901,121141,25.911721865,-80.13726300333333,-2.1,1.0,146.0,0.0,45.2,-0.12,-0.02,-0.97,-20.56,Waypoint,-9.4,-41.0,90126.0,121105.0,29.976,46379.79,29.96,0.06,0.041,0.76,84.78,5.44,-0.17,1.2
20260901,121142,25.911717151666668,-80.13726259666667,-2.0,0.6,168.7,0.0,45.2,-0.05,0.0,-0.99,-12.5,Waypoint,0.0,0.0,90126.0,121106.0,29.977,46353.35,29.94,0.06,0.041,0.76,84.82,5.44,-0.17,1.2
20260901,121143,25.91171363666667,-80.13726161333334,-2.3,0.1,173.5,0.0,45.2,-0.04,0.0,-1.02,-6.17,Waypoint,25.5,25.5,90126.0,121107.0,29.977,46334.84,29.93,0.06,0.04,0.75,84.87,5.44,-0.16,1.2
20260901,121144,25.911710305,-80.13726051833333,-1.7,-0.1,173.5,0.0,45.2,-0.01,-0.04,-0.99,-1.65,Waypoint,32.3,16.2,90126.0,121108.0,29.978,46335.41,29.93,0.06,0.04,0.79,84.91,5.45,-0.17,1.2
20260901,121145,25.91170518,-80.13725921333334,-1.9,-0.1,171.6,0.0,45.2,-0.0,0.02,-0.99,-0.29,Waypoint,34.1,1.0,90126.0,121109.0,29.982,46378.36,29.96,0.06,0.04,0.78,85.0,5.45,-0.19,1.2
20260901,121146,25.911697315,-80.13725715666666,-2.0,-0.2,172.6,0.0,45.2,-0.04,0.04,-1.01,0.35,Waypoint,33.0,5.5,90126.0,121110.0,29.99,46409.1,29.98,0.06,0.04,0.82,85.1,5.46,-0.19,1.2
20260901,121147,25.911688613333332,-80.13725472166666,-1.8,-0.2,172.7,0.0,45.2,-0.03,-0.01,-1.03,0.14,Waypoint,33.0,10.0,90126.0,121111.0,30.003,46441.71,30.01,0.06,0.039,0.83,85.25,5.47,-0.19,1.2
20260901,121148,25.911679005,-80.13725204333333,-1.3,-0.1,168.9,0.0,45.2,-0.01,0.01,-0.92,-0.39,Waypoint,33.0,-2.2,90126.0,121112.0,30.017,46471.73,30.03,0.06,0.039,0.81,85.41,5.47,-0.2,1.2
20260901,121149,25.911668731666666,-80.13724910833334,-2.1,-0.4,172.6,0.0,45.2,-0.02,0.05,-0.99,0.38,Waypoint,33.0,6.0,90126.0,121113.0,30.031,46500.56,30.05,0.06,0.039,0.8,85.63,5.49,-0.21,1.2
20260901,121150,25.911658366666668,-80.13724620166667,-3.4,-0.3,4.2,0.0,45.2,-0.08,0.02,-1.06,-0.39,Waypoint,4.5,-4.5,90126.0,121114.0,30.046,46522.13,30.06,0.06,0.039,0.79,85.85,5.5,-0.2,1.2
20260901,121151,25.911649368333332,-80.1372436,-2.9,-0.2,11.0,0.0,45.2,-0.05,-0.02,-1.01,-0.99,Waypoint,-0.6,-42.3,90126.0,121115.0,30.062,46525.41,30.06,0.06,0.039,0.83,86.13,5.51,-0.21,1.2
20260901,121152,0.0,0.0,-2.1,0.3,14.6,0.0,45.2,-0.14,-0.03,-0.98,-10.45,Waypoint,-5.2,-75.2,90126.0,121116.0,30.076,46520.24,30.06,0.06,0.04,0.85,86.38,5.53,-0.2,1.2
20260901,121153,25.911634618333334,-80.13723573333333,-2.7,1.4,13.1,0.0,45.2,-0.01,-0.13,-0.83,-22.88,Waypoint,-5.2,-75.2,90126.0,121117.0,30.087,46513.88,30.05,0.06,0.04,0.81,86.69,5.55,-0.2,1.2
20260901,121154,25.911631701666668,-80.13722937666667,-1.5,1.5,33.5,0.0,45.2,-0.14,-0.23,-0.97,-26.09,Waypoint,-5.3,-68.7,90126.0,121119.0,30.108,46497.54,30.04,0.06,0.041,0.76,87.31,5.59,-0.23,1.2
20260901,121155,25.911631846666666,-80.13722421666667,-1.9,0.9,60.8,0.0,45.2,-0.06,-0.02,-0.99,-20.19,Waypoint,-12.2,-12.2,90126.0,121119.0,30.111,46492.83,30.04,0.06,0.041,0.76,87.31,5.59,-0.23,1.2
20260901,121156,25.91163311,-80.13722043833333,-2.4,0.3,73.4,0.0,45.3,-0.07,0.01,-1.04,-11.22,Waypoint,-6.1,6.1,90126.0,121120.0,30.12,46480.16,30.03,0.06,0.041,0.78,87.64,5.61,-0.24,1.2
20260901,121157,25.91163438,-80.13721788166667,-2.0,0.3,78.7,0.0,45.3,-0.03,-0.02,-1.02,-4.23,Waypoint,25.9,42.0,90126.0,121121.0,30.126,46463.51,30.02,0.06,0.04,0.79,87.92,5.62,-0.25,1.2
20260901,121158,25.911635811666667,-80.137214055,-0.9,-0.0,79.1,0.0,45.2,0.02,0.05,-0.95,3.11,Waypoint,26.9,26.9,90126.0,121122.0,30.131,46438.96,30.0,0.06,0.04,0.79,88.23,5.64,-0.25,1.2
20260901,121159,25.911637783333333,-80.13720752,-1.9,0.9,73.8,0.0,45.2,-0.04,-0.02,-1.03,2.33,Waypoint,24.8,-6.6,90126.0,121123.0,30.134,46427.84,29.99,0.06,0.041,0.81,88.47,5.66,-0.25,1.2
20260901,121200,25.911639885,-80.13720069666667,-1.6,1.1,72.5,0.0,45.2,-0.01,-0.04,-1.07,-0.74,Waypoint,34.4,0.4,90126.0,121124.0,30.138,46427.07,29.99,0.06,0.041,0.82,88.73,5.68,-0.25,1.2
20260901,121201,25.911642656666668,-80.13719273166667,-1.6,0.7,75.4,0.0,45.2,0.0,-0.04,-1.07,0.89,Waypoint,33.2,7.0,90126.0,121125.0,30.142,46427.12,29.99,0.06,0.04,0.83,88.95,5.69,-0.27,1.2
20260901,121202,25.911645851666666,-80.13718331333334,-1.8,-0.0,77.4,0.0,45.2,-0.05,0.01,-1.05,0.68,Waypoint,32.0,8.1,90126.0,121126.0,30.146,46430.37,29.99,0.06,0.04,0.85,89.18,5.7,-0.28,1.2
20260901,121203,25.91164931,-80.137172935,-1.6,-0.2,73.1,0.0,45.2,-0.03,-0.0,-1.01,-0.94,Waypoint,34.0,2.4,90126.0,121127.0,30.151,46439.34,30.0,0.06,0.041,0.88,89.37,5.72,-0.27,1.2
20260901,121204,25.911653065,-80.1371619,-1.7,-0.2,73.8,0.0,45.2,-0.03,0.06,-1.04,0.52,Waypoint,34.0,4.1,90126.0,121128.0,30.156,46448.2,30.01,0.06,0.041,0.91,89.56,5.73,-0.26,1.2
20260901,121205,25.911656988333334,-80.13715048,-1.7,0.1,72.5,0.0,45.2,-0.04,0.01,-0.99,0.13,Waypoint,34.1,4.2,90126.0,121129.0,30.16,46463.35,30.02,0.06,0.04,0.91,89.7,5.74,-0.25,1.2
20260901,121206,25.911661408333334,-80.13713764666667,-1.6,0.0,74.7,0.0,45.2,-0.06,-0.0,-1.0,0.08,Waypoint,33.4,7.8,90126.0,121130.0,30.165,46500.24,30.04,0.06,0.04,0.92,89.84,5.74,-0.25,1.2
20260901,121207,25.91166555,-80.13712583166667,-1.6,0.0,72.2,0.0,45.2,-0.02,0.04,-0.98,-1.04,Waypoint,34.0,6.6,90126.0,121131.0,30.171,46544.36,30.07,0.06,0.041,0.94,89.97,5.75,-0.25,1.2
20260901,121208,25.911669858333333,-80.13711404833333,-1.7,-0.7,72.3,0.0,45.2,-0.01,0.06,-0.95,-0.07,Waypoint,34.0,6.1,90126.0,121132.0,30.179,46586.15,30.1,0.06,0.04,0.93,90.1,5.76,-0.25,1.2
20260901,121209,25.911674063333333,-80.13710221666666,-1.6,-0.4,69.4,0.0,45.2,-0.03,0.0,-0.97,-0.57,Waypoint,34.0,-1.3,90126.0,121133.0,30.188,46625.01,30.13,0.06,0.04,0.93,90.22,5.76,-0.24,1.2
20260901,121210,25.911678273333333,-80.13709042,-1.7,0.2,77.0,0.0,45.2,-0.05,0.01,-1.0,0.02,Waypoint,33.5,8.1,90126.0,121134.0,30.199,46651.1,30.15,0.06,0.04,0.93,90.34,5.77,-0.24,1.2
20260901,121211,25.91168257,-80.13707860666666,-1.6,0.0,71.0,0.0,45.2,-0.03,0.0,-1.0,-0.1,Waypoint,34.0,8.4,90126.0,121135.0,30.209,46688.97,30.18,0.06,0.04,0.92,90.45,5.77,-0.22,1.2
20260901,121212,25.91168692666667,-80.13706689166666,-1.8,-0.1,69.1,0.0,45.2,-0.03,-0.01,-1.0,0.08,Waypoint,34.0,0.5,90126.0,121136.0,30.223,46709.95,30.19,0.06,0.04,0.92,90.58,5.78,-0.22,1.2
20260901,121213,25.911691195,-80.13705522166667,-1.8,-0.5,72.7,0.0,45.2,-0.01,0.02,-0.99,0.26,Waypoint,32.0,9.4,90126.0,121137.0,30.236,46709.78,30.19,0.06,0.04,0.89,90.67,5.78,-0.22,1.2
20260901,121214,25.9116954,-80.137043545,-1.8,-0.5,69.1,0.0,45.2,-0.03,0.02,-1.02,-0.17,Waypoint,33.0,3.4,90126.0,121138.0,30.246,46705.46,30.19,0.06,0.04,0.86,90.74,5.79,-0.23,1.2
20260901,121215,25.911699611666666,-80.137031875,-1.7,-0.4,71.7,0.0,45.2,-0.04,0.04,-1.0,0.05,Waypoint,33.0,9.9,90126.0,121139.0,30.253,46708.75,30.19,0.06,0.04,0.86,90.79,5.79,-0.22,1.2
20260901,121216,25.911704228333335,-80.13701898833334,-2.4,-0.1,261.0,0.0,45.2,-0.06,-0.0,-1.0,-0.43,Waypoint,4.7,-4.7,90126.0,121140.0,30.255,46692.62,30.18,0.06,0.041,0.85,90.81,5.79,-0.22,1.2
20260901,121217,25.91170801333333,-80.13700874833333,-2.6,0.5,267.5,0.0,45.2,-0.05,-0.01,-1.01,-1.05,Waypoint,-0.5,-42.4,90126.0,121141.0,30.255,46685.27,30.17,0.06,0.04,0.9,90.82,5.79,-0.2,1.2
20260901,121218,25.911711771666667,-80.1369999,-1.4,0.4,270.8,0.0,45.2,-0.02,0.0,-1.01,-7.89,Waypoint,-5.2,-75.2,90126.0,121142.0,30.257,46680.79,30.17,0.06,0.04,0.89,90.84,5.79,-0.21,1.2
20260901,121219,25.91171694,-80.13699231666666,-1.7,1.1,266.4,0.0,45.3,-0.02,-0.28,-0.92,-20.66,Waypoint,-5.2,-75.2,90126.0,121143.0,30.26,46656.61,30.15,0.06,0.04,0.9,90.84,5.79,-0.22,1.2
20260901,121220,25.91172329,-80.13698863666667,-1.7,1.5,290.1,0.0,45.3,-0.14,-0.01,-0.93,-25.67,Waypoint,-5.4,-73.6,90126.0,121144.0,30.26,46623.86,30.13,0.06,0.041,0.89,90.82,5.79,-0.23,1.2
20260901,121221,25.911728643333333,-80.13698888166667,-1.7,0.9,313.1,0.0,45.3,-0.07,-0.01,-1.02,-24.09,Waypoint,-18.2,-18.2,90126.0,121145.0,30.258,46582.87,30.1,0.06,0.041,0.89,90.77,5.79,-0.23,1.2
20260901,121222,25.911732145,-80.13699051666667,-1.8,0.2,326.3,0.0,45.3,-0.06,-0.01,-0.99,-14.73,Waypoint,-5.3,5.3,90126.0,121146.0,30.252,46536.58,30.07,0.06,0.041,0.88,90.68,5.79,-0.23,1.2
20260901,121223,25.911734611666667,-80.13699215,-2.2,-0.3,329.9,0.0,45.4,-0.04,0.01,-1.01,-8.84,Waypoint,28.5,33.5,90126.0,121147.0,30.242,46503.9,30.04,0.06,0.041,0.82,90.56,5.78,-0.23,1.2
20260901,121224,25.91173719,-80.13699406166667,-1.4,-0.5,332.0,0.0,45.3,-0.02,0.06,-1.04,-0.44,Waypoint,29.7,18.9,90126.0,121148.0,30.231,46470.11,30.02,0.06,0.041,0.85,90.42,5.77,-0.22,1.2
20260901,121225,25.911741863333333,-80.136996955,-1.5,0.0,330.2,0.0,45.3,-0.01,0.03,-0.97,2.71,Waypoint,32.0,-1.7,90126.0,121149.0,30.216,46435.6,29.99,0.06,0.041,0.87,90.27,5.77,-0.22,1.2
20260901,121226,25.911748658333334,-80.13700143833333,-0.8,0.6,324.4,0.0,45.3,0.03,-0.05,-0.95,1.04,Waypoint,36.6,3.3,90126.0,121150.0,30.201,46432.34,29.99,0.06,0.04,0.85,90.12,5.76,-0.22,1.2
20260901,121227,25.911755891666665,-80.13700666166666,-0.8,0.3,325.1,0.0,45.3,-0.0,0.02,-1.0,1.92,Waypoint,37.1,-2.5,90126.0,121151.0,30.19,46430.24,29.99,0.06,0.041,0.9,90.0,5.75,-0.24,1.2
20260901,121228,25.911763993333334,-80.13701264666666,-1.1,0.1,322.1,0.0,45.3,-0.03,-0.0,-1.01,0.28,Waypoint,34.1,-2.6,90126.0,121152.0,30.181,46397.74,29.97,0.06,0.041,0.86,89.85,5.74,-0.23,1.2
20260901,121229,25.911772633333335,-80.13701923,-1.3,-0.3,328.1,0.0,45.3,0.0,-0.01,-1.02,0.6,Waypoint,33.0,5.6,90126.0,121153.0,30.167,46379.39,29.96,0.06,0.041,0.83,89.73,5.74,-0.23,1.2
20260901,121230,25.911781626666667,-80.13702613666666,-1.5,-0.3,319.4,0.0,45.3,-0.06,-0.02,-0.97,-0.02,Waypoint,32.7,-7.5,90126.0,121154.0,30.156,46351.85,29.94,0.06,0.041,0.85,89.58,5.73,-0.22,1.2
20260901,121231,25.91179077,-80.13703313333333,-1.8,-0.4,327.6,0.0,45.3,-0.05,0.0,-1.01,-0.33,Waypoint,33.0,7.7,90126.0,121155.0,30.139,46317.88,29.91,0.06,0.041,0.84,89.42,5.72,-0.22,1.2
20260901,121232,25.911800091666667,-80.13704027333333,-1.8,-0.4,324.4,0.0,45.3,-0.03,-0.02,-1.0,-0.69,Waypoint,34.0,3.7,90126.0,121156.0,30.118,46291.19,29.89,0.06,0.041,0.81,89.22,5.71,-0.22,1.2
20260901,121233,25.911809296666668,-80.13704759666666,-1.6,-0.4,324.8,0.0,45.3,-0.04,-0.01,-1.01,0.08,Waypoint,34.0,3.3,90126.0,121157.0,30.103,46320.12,29.91,0.06,0.041,0.82,89.04,5.7,-0.23,1.2
20260901,121234,25.91181853,-80.13705482833333,-1.8,-0.5,325.4,0.0,45.3,-0.04,0.03,-1.0,0.15,Waypoint,34.0,1.6,90126.0,121158.0,30.092,46360.35,29.94,0.06,0.041,0.85,88.88,5.69,-0.22,1.2
20260901,121235,25.911827823333333,-80.13706202833333,-1.8,-0.4,325.4,0.0,45.3,-0.03,0.03,-1.0,-0.63,Waypoint,34.0,6.6,90126.0,121159.0,30.087,46405.77,29.98,0.06,0.042,0.86,88.76,5.68,-0.21,1.2
20260901,121237,25.911837945,-80.13707012666667,-1.7,-0.4,326.3,0.0,45.3,-0.02,0.01,-0.97,0.08,Waypoint,33.0,6.6,90126.0,121200.0,30.084,46436.86,30.0,0.06,0.042,0.87,88.65,5.68,-0.2,1.2
20260901,121237,25.911847076666668,-80.13707749166667,-2.0,-0.2,320.9,0.0,45.3,-0.0,-0.02,-0.99,-1.16,Waypoint,32.5,0.2,90126.0,121201.0,30.081,46440.43,30.0,0.06,0.042,0.9,88.54,5.67,-0.19,1.2
20260901,121238,25.911856101666668,-80.13708504833333,-1.9,-0.5,328.9,0.0,45.3,-0.01,0.02,-1.0,0.52,Waypoint,31.0,11.4,90126.0,121202.0,30.074,46441.47,30.0,0.06,0.043,0.87,88.39,5.66,-0.18,1.2
20260901,121239,25.911865153333334,-80.13709251666667,-1.7,-0.5,331.4,0.0,45.3,-0.02,0.04,-1.01,0.4,Waypoint,32.0,13.4,90126.0,121203.0,30.064,46425.54,29.99,0.06,0.043,0.9,88.22,5.65,-0.18,1.2
20260901,121241,25.911874173333334,-80.13710007166667,-2.0,-0.3,329.0,0.0,45.3,-0.04,-0.03,-0.99,-0.14,Waypoint,32.4,12.9,90126.0,121204.0,30.049,46415.16,29.98,0.06,0.043,0.88,88.0,5.64,-0.18,1.2
20260901,121242,25.911883285000002,-80.13710776833334,-1.9,-0.4,328.0,0.0,45.3,-0.02,0.07,-1.0,0.02,Waypoint,33.4,9.0,90126.0,121205.0,30.037,46416.07,29.99,0.06,0.043,0.88,87.79,5.62,-0.17,1.2
20260901,121243,25.91189245,-80.13711542833333,-1.7,-0.5,322.3,0.0,45.3,-0.04,-0.02,-1.02,0.15,Waypoint,33.0,-0.2,90126.0,121206.0,30.025,46421.38,29.99,0.06,0.043,0.92,87.53,5.61,-0.17,1.2
20260901,121244,25.911901333333333,-80.13712303,-2.0,-0.4,321.6,0.0,45.3,-0.03,0.02,-1.01,-0.77,Waypoint,33.0,-0.9,90126.0,121207.0,30.016,46432.57,30.0,0.06,0.043,0.94,87.31,5.6,-0.16,1.2
20260901,121245,25.911910108333334,-80.137130635,-2.0,-0.7,320.8,0.0,45.4,-0.05,-0.0,-0.98,-0.18,Waypoint,33.4,2.2,90126.0,121208.0,30.008,46452.77,30.01,0.06,0.043,0.94,87.06,5.58,-0.16,1.2
20260901,121246,25.911919008333335,-80.13713819666667,-1.9,-0.6,320.4,0.0,45.4,-0.02,-0.01,-0.98,-0.43,Waypoint,33.4,-1.0,90126.0,121209.0,30.004,46480.13,30.03,0.06,0.043,0.92,86.83,5.57,-0.16,1.2
20260901,121247,25.911928733333333,-80.137146575,-2.2,-0.6,324.1,0.0,45.4,-0.01,0.02,-1.0,-0.4,Waypoint,34.0,1.3,90126.0,121210.0,30.001,46486.92,30.04,0.06,0.043,0.89,86.64,5.55,-0.16,1.2
20260901,121248,25.911937605,-80.13715417666667,-2.1,-0.6,323.0,0.0,45.4,-0.07,0.05,-1.0,-0.78,Waypoint,34.0,2.9,90126.0,121211.0,29.995,46498.41,30.05,0.06,0.043,0.88,86.41,5.54,-0.14,1.2
20260901,121249,25.911946546666666,-80.13716189833333,-2.0,-0.7,319.4,0.0,45.4,-0.05,0.0,-1.02,-0.81,Waypoint,34.3,-0.3,90126.0,121212.0,29.99,46505.37,30.05,0.06,0.043,0.85,86.2,5.53,-0.13,1.2
20260901,121250,25.9119553,-80.137169655,-2.2,-0.7,320.4,0.0,45.4,-0.05,0.02,-0.96,-1.09,Waypoint,33.8,0.8,90126.0,121213.0,29.985,46519.8,30.06,0.06,0.043,0.86,85.97,5.51,-0.14,1.2
20260901,121251,25.911964025,-80.137177445,-2.2,-0.7,323.6,0.0,45.4,-0.02,0.0,-1.01,0.34,Waypoint,34.0,3.4,90126.0,121214.0,29.983,46527.32,30.07,0.06,0.043,0.81,85.78,5.5,-0.14,1.2
20260901,121252,25.911972943333332,-80.13718516666667,-1.9,-0.6,322.7,0.0,45.4,-0.06,0.01,-1.01,-0.07,Waypoint,34.0,3.6,90126.0,121215.0,29.982,46541.74,30.08,0.06,0.043,0.83,85.61,5.49,-0.15,1.2
20260901,121253,25.911981733333334,-80.13719284166666,-2.1,-0.7,320.5,0.0,45.4,-0.04,0.01,-1.01,-0.33,Waypoint,34.5,1.0,90126.0,121216.0,29.982,46564.88,30.1,0.06,0.043,0.82,85.49,5.48,-0.16,1.2
20260901,121254,25.911990361666668,-80.13720064666667,-2.2,-0.6,325.1,0.0,45.4,-0.02,-0.01,-1.0,-0.81,Waypoint,32.1,3.3,90126.0,121217.0,29.983,46580.63,30.11,0.06,0.043,0.8,85.39,5.47,-0.15,1.2
20260901,121255,25.91199916,-80.13720866166666,-1.9,-0.5,323.9,0.0,45.4,-0.01,0.02,-1.0,0.29,Waypoint,33.0,6.5,90126.0,121218.0,29.984,46592.87,30.12,0.06,0.043,0.8,85.32,5.47,-0.15,1.2
20260901,121256,25.912007835,-80.13721656166666,-2.0,-0.5,325.1,0.0,45.4,-0.04,0.02,-0.99,0.17,Waypoint,33.0,11.3,90126.0,121219.0,29.984,46594.81,30.12,0.06,0.043,0.81,85.24,5.46,-0.15,1.2
20260901,121257,25.912017275,-80.13722526333333,-2.4,-0.4,319.9,0.0,45.4,-0.04,-0.02,-1.01,-0.24,Waypoint,33.0,-0.0,90126.0,121220.0,29.983,46594.31,30.12,0.06,0.043,0.82,85.2,5.46,-0.15,1.2
20260901,121258,25.912026058333332,-80.137233355,-2.1,-0.4,320.9,0.0,45.4,-0.03,0.03,-1.03,0.26,Waypoint,33.0,0.4,90126.0,121221.0,29.983,46596.35,30.12,0.06,0.043,0.83,85.18,5.46,-0.15,1.2
20260901,121259,25.912034715,-80.1372412,-1.9,-0.4,321.6,0.0,45.4,-0.01,0.06,-1.01,-0.04,Waypoint,32.7,5.0,90126.0,121222.0,29.982,46592.18,30.11,0.06,0.043,0.78,85.17,5.46,-0.15,1.2
20260901,121300,25.912043261666668,-80.13724903166667,-2.1,-0.4,324.7,0.0,45.4,-0.0,-0.0,-0.99,0.26,Waypoint,33.0,12.1,90126.0,121223.0,29.981,46589.73,30.11,0.06,0.043,0.79,85.18,5.46,-0.15,1.2
20260901,121301,25.912052081666666,-80.13725709666667,-2.2,-0.5,324.9,0.0,45.4,-0.04,-0.01,-1.01,-0.16,Waypoint,33.0,7.7,90126.0,121224.0,29.98,46579.13,30.11,0.06,0.044,0.78,85.18,5.46,-0.15,1.2
20260901,121302,25.912060763333333,-80.13726509833333,-2.0,-0.6,321.5,0.0,45.4,-0.04,0.01,-1.01,0.28,Waypoint,34.0,4.9,90126.0,121225.0,29.978,46573.2,30.1,0.06,0.044,0.81,85.17,5.46,-0.15,1.2
20260901,121303,25.912069286666668,-80.13727299833333,-2.3,-0.5,325.3,0.0,45.4,-0.05,0.01,-1.03,-0.04,Waypoint,32.0,9.1,90126.0,121226.0,29.977,46557.85,30.09,0.06,0.044,0.79,85.16,5.46,-0.16,1.2
20260901,121304,25.91207783833333,-80.13728108833334,-2.1,-0.6,323.8,0.0,45.4,-0.04,0.01,-1.01,-0.38,Waypoint,33.0,9.7,90126.0,121227.0,29.976,46565.46,30.1,0.06,0.045,0.75,85.16,5.46,-0.16,1.2
20260901,121305,25.912086476666666,-80.13728924333333,-1.9,-0.7,324.6,0.0,45.4,-0.02,-0.02,-0.98,0.36,Waypoint,32.0,8.0,90126.0,121228.0,29.976,46566.41,30.1,0.06,0.045,0.74,85.15,5.46,-0.15,1.2
20260901,121306,25.912094961666668,-80.13729732333333,-2.4,-0.5,320.2,0.0,45.4,-0.05,0.05,-1.02,-0.32,Waypoint,33.0,-0.0,90126.0,121229.0,29.975,46548.44,30.08,0.07,0.045,0.77,85.11,5.46,-0.15,1.2
20260901,121307,25.912103486666666,-80.13730542833333,-2.1,-0.6,325.1,0.0,45.4,-0.03,0.03,-1.0,0.98,Waypoint,32.0,5.8,90126.0,121230.0,29.973,46542.92,30.08,0.07,0.045,0.78,85.05,5.45,-0.13,1.2
20260901,121308,25.91211302,-80.13731420333333,-1.9,-0.6,323.3,0.0,45.4,-0.03,0.06,-0.99,0.74,Waypoint,34.0,2.8,90126.0,121231.0,29.971,46541.86,30.08,0.07,0.045,0.76,84.99,5.45,-0.13,1.2
20260901,121309,25.91212159333333,-80.13732214,-2.3,-0.3,321.7,0.0,45.4,-0.03,-0.05,-1.01,-0.78,Waypoint,34.0,6.1,90126.0,121232.0,29.969,46554.83,30.09,0.07,0.045,0.74,84.93,5.45,-0.14,1.2
20260901,121310,25.91213009,-80.13733011833334,-2.3,-0.3,321.7,0.0,45.4,-0.03,-0.05,-1.01,-0.78,Waypoint,34.0,6.1,90126.0,121233.0,29.968,46573.0,30.1,0.07,0.045,0.74,84.85,5.44,-0.13,1.2
20260901,121311,25.912138775,-80.13733805833333,-2.1,-0.6,319.5,0.0,45.4,-0.01,0.03,-0.96,0.47,Waypoint,34.4,0.2,90126.0,121234.0,29.969,46581.85,30.11,0.07,0.045,0.71,84.77,5.43,-0.15,1.2
20260901,121312,25.912147386666668,-80.13734607666666,-2.2,-0.4,317.6,0.0,45.4,-0.01,-0.03,-1.0,0.28,Waypoint,31.9,-4.6,90126.0,121235.0,29.972,46598.59,30.12,0.07,0.045,0.69,84.7,5.43,-0.15,1.2
20260901,121312,25.912147386666668,-80.13734607666666,-2.2,-0.4,317.6,0.0,45.4,-0.01,-0.03,-1.0,0.28,Waypoint,31.9,-4.6,90126.0,121236.0,29.977,46622.4,30.14,0.07,0.045,0.71,84.63,5.42,-0.16,1.2
20260901,121313,25.912155903333332,-80.13735411166667,-2.1,-0.6,323.3,0.0,45.4,-0.05,-0.02,-0.99,0.5,Waypoint,32.5,5.8,90126.0,121237.0,29.981,46644.45,30.15,0.07,0.045,0.72,84.55,5.42,-0.16,1.2
20260901,121314,25.91216452666667,-80.13736222166666,-2.1,-0.4,322.7,0.0,45.4,-0.02,0.01,-0.98,0.02,Waypoint,34.0,4.9,90126.0,121238.0,29.984,46658.96,30.16,0.07,0.045,0.74,84.48,5.41,-0.16,1.2
20260901,121315,25.912173166666665,-80.137370335,-2.2,-0.5,325.8,0.0,45.4,-0.01,0.01,-1.03,-0.59,Waypoint,31.7,12.7,90126.0,121239.0,29.987,46682.15,30.18,0.07,0.045,0.78,84.38,5.41,-0.16,1.2
20260901,121316,25.912181695,-80.13737845666667,-2.4,-0.6,323.9,0.0,45.4,-0.06,-0.0,-1.01,0.12,Waypoint,34.0,6.9,90126.0,121240.0,29.989,46700.85,30.19,0.07,0.045,0.73,84.29,5.4,-0.16,1.2
20260901,121317,25.91219031,-80.13738660833333,-2.1,-0.6,323.1,0.0,45.4,-0.02,-0.0,-0.97,1.07,Waypoint,32.8,9.5,90126.0,121241.0,29.991,46707.16,30.2,0.07,0.045,0.7,84.19,5.39,-0.16,1.2
20260901,121318,25.912199915,-80.13739549166667,-2.0,-0.5,323.8,0.0,45.4,-0.03,-0.01,-1.0,0.51,Waypoint,34.0,4.0,90126.0,121242.0,29.994,46719.45,30.21,0.07,0.046,0.72,84.12,5.39,-0.17,1.2
20260901,121319,25.91220849,-80.13740330833333,-2.3,-0.5,323.5,0.0,45.4,-0.04,-0.02,-1.02,0.37,Waypoint,34.0,3.1,90126.0,121243.0,29.997,46724.95,30.21,0.07,0.046,0.73,84.05,5.38,-0.19,1.2
20260901,121320,25.912217206666668,-80.13741132166666,-2.3,-0.3,325.0,0.0,45.4,-0.03,0.04,-1.0,-0.38,Waypoint,33.4,7.1,90126.0,121244.0,30.001,46730.1,30.21,0.07,0.046,0.74,84.01,5.38,-0.2,1.2
20260901,121321,25.91222607,-80.13741938833333,-2.0,-0.6,326.3,0.0,45.4,-0.04,-0.07,-0.99,0.74,Waypoint,33.0,7.3,90126.0,121245.0,30.005,46716.24,30.2,0.07,0.045,0.73,83.97,5.38,-0.22,1.2
20260901,121322,25.912234795,-80.13742712666667,-2.2,-0.4,324.4,0.0,45.4,-0.02,-0.03,-1.0,0.37,Waypoint,34.0,3.2,90126.0,121246.0,30.008,46708.09,30.2,0.07,0.045,0.73,83.95,5.38,-0.23,1.2
20260901,121323,25.91224353,-80.13743498666666,-2.3,-0.4,325.3,0.0,45.4,-0.04,0.0,-1.01,-0.82,Waypoint,33.8,10.1,90126.0,121247.0,30.008,46688.85,30.18,0.07,0.046,0.7,83.92,5.37,-0.24,1.2
20260901,121324,25.912252446666667,-80.13744292,-2.0,-0.6,323.3,0.0,45.4,-0.04,0.01,-1.0,-0.08,Waypoint,33.0,4.2,90126.0,121248.0,30.007,46670.92,30.17,0.07,0.046,0.69,83.87,5.37,-0.24,1.2
20260901,121325,25.912261076666667,-80.13745064,-2.2,-0.6,327.6,0.0,45.4,-0.05,0.03,-1.03,0.29,Waypoint,33.2,9.6,90126.0,121249.0,30.004,46655.93,30.16,0.07,0.045,0.7,83.81,5.37,-0.23,1.2
20260901,121326,25.91226976,-80.137458345,-2.3,-0.3,319.3,0.0,45.4,-0.02,-0.01,-0.99,-0.82,Waypoint,30.0,-2.4,90126.0,121250.0,30.003,46648.78,30.16,0.07,0.045,0.69,83.78,5.37,-0.22,1.2
20260901,121327,25.91227857166667,-80.13746627833333,-2.0,-0.6,321.7,0.0,45.4,-0.07,-0.04,-1.01,-0.33,Waypoint,32.0,-0.3,90126.0,121251.0,30.003,46639.13,30.15,0.07,0.046,0.7,83.77,5.37,-0.21,1.2
20260901,121328,25.912288245,-80.137474815,-2.3,-0.6,318.7,0.0,45.4,-0.03,0.01,-1.02,-0.44,Waypoint,31.2,-6.0,90126.0,121252.0,30.003,46641.77,30.15,0.07,0.046,0.74,83.79,5.37,-0.21,1.2
20260901,121329,25.912296973333333,-80.137482635,-2.2,-0.6,324.0,0.0,45.4,-0.01,-0.02,-0.98,-0.61,Waypoint,34.0,6.0,90126.0,121253.0,30.004,46648.39,30.15,0.07,0.045,0.75,83.83,5.37,-0.21,1.2
20260901,121330,25.912305975,-80.13749065333333,-1.9,-0.7,326.2,0.0,45.4,-0.05,-0.0,-0.99,0.31,Waypoint,33.0,7.2,90126.0,121254.0,30.005,46659.77,30.16,0.07,0.046,0.79,83.87,5.37,-0.21,1.2
20260901,121331,25.912314765,-80.13749854333334,-2.2,-0.5,323.2,0.0,45.4,-0.03,0.01,-0.99,0.27,Waypoint,33.0,-0.5,90126.0,121255.0,30.006,46662.13,30.16,0.07,0.046,0.8,83.89,5.37,-0.21,1.2
20260901,121332,25.912323671666666,-80.137506275,-2.3,-0.5,328.7,0.0,45.4,-0.02,-0.02,-0.97,0.93,Waypoint,32.0,9.3,90126.0,121256.0,30.007,46659.31,30.16,0.07,0.046,0.85,83.91,5.37,-0.21,1.2
20260901,121333,25.912332773333333,-80.137514015,-2.0,-0.4,322.9,0.0,45.4,-0.05,0.01,-0.99,-0.2,Waypoint,32.0,1.3,90126.0,121257.0,30.007,46633.12,30.14,0.07,0.046,0.86,83.91,5.37,-0.21,1.2
20260901,121334,25.91234171,-80.13752153333333,-2.2,-0.4,322.6,0.0,45.4,-0.03,0.02,-1.04,-0.08,Waypoint,32.5,0.8,90126.0,121258.0,30.006,46623.21,30.14,0.07,0.045,0.87,83.91,5.37,-0.21,1.2
20260901,121335,25.912350588333332,-80.13752901666666,-2.3,-0.4,325.9,0.0,45.5,-0.04,-0.02,-0.98,-0.11,Waypoint,34.0,6.4,90126.0,121259.0,30.004,46612.51,30.13,0.07,0.046,0.89,83.92,5.38,-0.21,1.2
20260901,121336,25.912359673333334,-80.13753671,-2.0,-0.5,323.4,0.0,45.5,-0.03,-0.03,-1.0,-0.42,Waypoint,33.0,2.8,90126.0,121300.0,30.002,46625.3,30.14,0.07,0.045,0.89,83.95,5.38,-0.22,1.2
20260901,121337,25.912368593333333,-80.13754444,-2.3,-0.4,327.8,0.0,45.5,-0.04,0.02,-1.0,-0.19,Waypoint,31.3,8.8,90126.0,121301.0,30.001,46644.99,30.15,0.07,0.045,0.87,83.99,5.38,-0.22,1.2
20260901,121338,25.9123783,-80.13755288,-2.1,-0.3,327.1,0.0,45.5,-0.03,0.01,-1.03,0.2,Waypoint,33.4,9.1,90126.0,121302.0,30.002,46655.2,30.16,0.07,0.045,0.89,84.03,5.38,-0.21,1.2
20260901,121339,25.912387201666668,-80.13756071833333,-2.1,-0.5,328.7,0.0,45.5,-0.04,0.01,-1.04,0.38,Waypoint,32.0,10.6,90126.0,121303.0,30.005,46650.3,30.16,0.07,0.046,0.89,84.08,5.39,-0.21,1.2
20260901,121340,25.912396083333334,-80.137568445,-2.1,-0.4,327.7,0.0,45.5,-0.02,0.0,-1.02,0.28,Waypoint,33.0,11.5,90126.0,121304.0,30.008,46628.96,30.14,0.07,0.045,0.87,84.13,5.39,-0.21,1.2
20260901,121341,25.912404875,-80.137576225,-2.1,-0.3,325.2,0.0,45.5,-0.02,0.06,-1.02,0.19,Waypoint,34.0,8.6,90126.0,121305.0,30.01,46582.49,30.11,0.07,0.046,0.84,84.21,5.39,-0.23,1.2
20260901,121342,25.912413751666666,-80.13758406333334,-1.9,-0.4,325.7,0.0,45.5,-0.03,0.02,-0.98,0.61,Waypoint,33.3,8.9,90126.0,121306.0,30.009,46542.09,30.08,0.07,0.045,0.81,84.28,5.4,-0.23,1.2
20260901,121343,25.912422618333334,-80.13759181833333,-2.0,-0.4,330.3,0.0,45.5,-0.01,-0.02,-0.98,0.39,Waypoint,31.0,15.6,90126.0,121307.0,30.006,46503.51,30.05,0.07,0.045,0.77,84.37,5.41,-0.24,1.2
20260901,121344,25.912431558333335,-80.13759962500001,-2.3,-0.4,326.0,0.0,45.5,-0.03,0.01,-1.03,-0.21,Waypoint,34.0,5.2,90126.0,121308.0,30.003,46481.6,30.03,0.07,0.046,0.78,84.43,5.41,-0.24,1.2
20260901,121345,25.912440398333334,-80.13760740666666,-2.2,-0.5,322.5,0.0,45.5,-0.04,0.05,-1.02,-0.93,Waypoint,32.0,-0.3,90126.0,121309.0,29.998,46457.44,30.02,0.07,0.046,0.77,84.49,5.42,-0.23,1.2
20260901,121346,25.912449155,-80.13761515,-2.2,-0.5,325.3,0.0,45.5,-0.04,0.03,-1.0,0.28,Waypoint,33.4,6.0,90126.0,121310.0,29.994,46453.92,30.01,0.07,0.046,0.77,84.52,5.42,-0.24,1.2
20260901,121347,25.912457898333333,-80.13762282,-2.2,-0.3,322.8,0.0,45.5,-0.02,0.02,-1.0,0.03,Waypoint,32.0,2.3,90126.0,121311.0,29.992,46452.02,30.01,0.07,0.046,0.75,84.53,5.42,-0.23,1.2
20260901,121348,25.912467548333332,-80.13763135166667,-2.1,-0.4,328.6,0.0,45.5,-0.04,0.04,-0.99,0.97,Waypoint,32.0,11.3,90126.0,121312.0,29.99,46454.78,30.02,0.07,0.046,0.73,84.51,5.42,-0.22,1.2
20260901,121349,25.912476413333334,-80.13763914,-2.1,-0.5,330.4,0.0,45.5,-0.04,0.01,-0.99,0.73,Waypoint,31.0,14.4,90126.0,121313.0,29.989,46440.21,30.0,0.07,0.046,0.69,84.44,5.41,-0.21,1.2
20260901,121350,25.912485398333335,-80.137646835,-2.2,-0.4,327.2,0.0,45.5,-0.03,-0.01,-0.98,-0.04,Waypoint,34.0,6.4,90126.0,121314.0,29.986,46428.53,30.0,0.07,0.046,0.69,84.37,5.41,-0.2,1.2
20260901,121351,25.91249441,-80.13765462,-2.1,-0.4,324.0,0.0,45.5,-0.02,0.03,-1.01,-0.57,Waypoint,34.2,2.9,90126.0,121315.0,29.981,46406.04,29.98,0.07,0.046,0.71,84.27,5.4,-0.2,1.2
20260901,121352,25.912503235,-80.1376623,-2.1,-0.6,325.2,0.0,45.5,-0.03,-0.02,-1.0,0.01,Waypoint,34.0,3.2,90126.0,121316.0,29.974,46398.14,29.97,0.07,0.046,0.71,84.17,5.4,-0.19,1.2
20260901,121353,25.91251224166667,-80.13766993666667,-2.2,-0.6,329.9,0.0,45.5,-0.04,0.03,-1.0,-0.14,Waypoint,32.0,8.4,90126.0,121317.0,29.967,46399.79,29.98,0.07,0.046,0.73,84.03,5.39,-0.19,1.2
20260901,121354,25.912521235,-80.13767750333334,-2.2,-0.6,323.7,0.0,45.5,-0.04,0.01,-1.01,-0.87,Waypoint,33.4,1.7,90126.0,121318.0,29.96,46424.5,29.99,0.07,0.045,0.77,83.89,5.38,-0.18,1.2
20260901,121355,25.912530246666666,-80.13768520166667,-2.2,-0.6,329.9,0.0,45.5,-0.05,0.03,-1.01,0.41,Waypoint,32.0,12.0,90126.0,121319.0,29.956,46453.86,30.02,0.07,0.045,0.79,83.72,5.37,-0.16,1.2
20260901,121356,25.91253936,-80.13769290166667,-2.1,-0.5,328.3,0.0,45.5,-0.06,0.03,-1.02,-0.05,Waypoint,33.0,9.7,90126.0,121320.0,29.953,46473.87,30.03,0.07,0.046,0.82,83.56,5.36,-0.15,1.2
20260901,121357,25.912548401666665,-80.13770065,-2.1,-0.5,325.5,0.0,45.5,-0.06,0.02,-1.01,0.95,Waypoint,33.0,-0.4,90126.0,121321.0,29.949,46501.0,30.05,0.07,0.045,0.83,83.39,5.35,-0.14,1.2
20260901,121358,25.912558373333333,-80.13770906333333,-2.0,-0.5,324.4,0.0,45.5,-0.03,0.04,-0.98,-0.1,Waypoint,32.0,1.4,90126.0,121322.0,29.946,46528.14,30.07,0.07,0.045,0.85,83.23,5.34,-0.14,1.2
20260901,121359,25.912567376666665,-80.13771679833333,-2.2,-0.6,324.4,0.0,45.5,-0.06,0.01,-1.01,-1.07,Waypoint,32.0,5.6,90126.0,121323.0,29.943,46556.13,30.09,0.07,0.045,0.84,83.05,5.33,-0.14,1.2
20260901,121400,25.912576315,-80.13772453333333,-2.2,-0.7,324.8,0.0,45.5,-0.04,0.05,-1.0,-0.18,Waypoint,33.0,2.9,90126.0,121324.0,29.938,46575.75,30.1,0.07,0.046,0.88,82.9,5.32,-0.14,1.2
20260901,121401,25.91258538,-80.13773229166667,-2.0,-0.6,326.8,0.0,45.5,-0.01,0.04,-0.98,-0.01,Waypoint,34.0,5.8,90126.0,121325.0,29.934,46598.03,30.12,0.07,0.045,0.89,82.73,5.31,-0.15,1.2
20260901,121402,25.912594535,-80.13773996,-2.0,-0.5,325.3,0.0,45.5,-0.03,0.02,-0.99,-0.23,Waypoint,33.0,4.0,90126.0,121326.0,29.931,46621.37,30.14,0.07,0.046,0.88,82.59,5.3,-0.14,1.2
20260901,121403,25.912603583333333,-80.13774760333334,-2.1,-0.5,327.7,0.0,45.5,-0.02,-0.02,-0.99,0.38,Waypoint,34.0,6.0,90126.0,121327.0,29.929,46651.64,30.16,0.07,0.046,0.9,82.44,5.29,-0.15,1.2
20260901,121404,25.912612836666668,-80.13775523833333,-2.2,-0.3,325.5,0.0,45.5,-0.04,-0.0,-1.03,-1.29,Waypoint,33.0,8.5,90126.0,121328.0,29.929,46695.15,30.19,0.07,0.046,0.9,82.3,5.28,-0.15,1.2
20260901,121405,25.912621823333332,-80.137762915,-2.2,-0.3,324.7,0.0,45.5,-0.04,-0.0,-1.03,-1.29,Waypoint,33.1,1.8,90126.0,121329.0,29.93,46722.54,30.21,0.07,0.046,0.91,82.14,5.27,-0.15,1.2
20260901,121406,25.912630806666666,-80.13777052833333,-2.1,-0.5,326.4,0.0,45.5,-0.05,0.06,-1.0,0.82,Waypoint,34.0,2.1,90126.0,121330.0,29.932,46745.44,30.23,0.07,0.046,0.87,81.98,5.26,-0.16,1.2
20260901,121407,25.912639875,-80.13777803166667,-2.1,-0.6,323.0,0.0,45.5,-0.04,-0.01,-1.02,0.81,Waypoint,33.7,-1.4,90126.0,121331.0,29.935,46760.97,30.24,0.07,0.046,0.82,81.81,5.24,-0.15,1.2
20260901,121411,25.912669298333334,-80.137802315,-2.6,-0.4,0.0,0.0,45.6,-0.08,0.01,-1.02,0.96,Waypoint,-0.3,48.4,90126.0,121334.0,29.948,46818.07,30.28,0.07,0.045,0.85,81.37,5.21,-0.18,1.2
20260901,121411,25.912669298333334,-80.137802315,-2.6,-0.4,0.0,0.0,45.6,-0.08,0.01,-1.02,0.96,Waypoint,-0.3,48.4,90126.0,121335.0,29.948,46818.07,30.28,0.07,0.045,0.87,81.33,5.21,-0.18,1.2
20260901,121412,25.91267555,-80.13780683333333,-2.4,-0.7,125.6,0.0,45.6,-0.09,0.02,-1.04,8.57,Waypoint,-5.2,75.2,90126.0,121336.0,29.954,46823.05,30.28,0.07,0.045,0.87,81.2,5.2,-0.18,1.2
20260901,121413,25.912682101666668,-80.13780923333333,-2.6,-1.7,125.2,0.0,45.6,-0.03,0.05,-0.71,20.43,Waypoint,-5.2,75.2,90126.0,121337.0,29.961,46807.58,30.27,0.07,0.045,0.88,81.09,5.19,-0.21,1.2
